AX,AY,AZ,GX,GY,GZ
-0.05249,0.82251,-0.195557,-40.549618,-1.435115,9.557252
-0.043457,0.768799,-0.239014,-49.748093,-5.664122,12.076336
-0.042725,0.818359,-0.230957,-49.183205,-5.938931,11.519084
-0.013916,0.835938,-0.17041,-52.816795,-5.992366,4.770992
-0.000488,0.875732,-0.110352,-50.610687,-0.503817,-0.717557
-0.00415,0.873291,-0.07959,-43.900764,7.038168,-2.076336
0.005371,0.862549,-0.058105,-45.206108,11.244275,-2.931298
0.018799,0.874512,-0.041016,-49.526718,11.824428,-4.717557
0.039307,0.902832,-0.024414,-49.786259,8.59542,-6.427481
0.026123,1.002441,-0.024414,-47.969467,2.458015,-8.709924
0.003418,1.064209,0.046387,-55.244274,-6.984733,-10.259542
-0.019043,1.088867,0.147461,-57.587788,-12.885496,-9.793893
-0.063477,1.099854,0.237061,-55.35878,-15.801527,-10.908397
-0.093018,1.104492,0.282471,-50.259541,-14.709924,-9.923664
-0.098633,1.096191,0.326904,-40.877861,-10.40458,-8.870229
-0.105713,1.095215,0.406738,-35.648853,-5.91603,-8.137404
-0.098877,1.037109,0.473877,-36.099236,-1.160305,-10.19084
-0.073975,1.001953,0.480957,-40.442749,1.801527,-10.305344
-0.050781,0.969482,0.453613,-51.114502,3.10687,-10.603053
-0.054199,0.911621,0.386963,-58.534351,1.938931,-9.419847
-0.044922,0.857422,0.333984,-60.32061,-0.793893,-5.961832
-0.037842,0.798828,0.294678,-60.374046,-3.862595,-4.427481
-0.039551,0.753662,0.275391,-57.450382,-7.908397,-3.519084
-0.05249,0.714111,0.305176,-54.908398,-12.717557,-1.442748
-0.054199,0.689209,0.35376,-50.854961,-18.137405,-0.19084
-0.05835,0.66748,0.389893,-50.687023,-23.473282,0.900763
-0.059326,0.641357,0.393555,-50.847328,-27.328245,2.282443
-0.052734,0.635986,0.399658,-48.587788,-28.916031,2.931298
-0.05249,0.630127,0.397705,-48.557251,-28.748091,3.198473
-0.05957,0.675781,0.362549,-44.671757,-26.51145,2.70229
-0.073242,0.729492,0.360596,-40.580154,-22.946566,-0.030534
-0.051758,0.748047,0.350342,-38.801525,-19.396946,-1.763359
-0.042236,0.770264,0.380859,-41.725189,-16.061069,0.29771
-0.045898,0.793945,0.414062,-36.137405,-12.183207,1.908397
-0.042969,0.814453,0.41333,-28.671755,-9.564885,3.610687
-0.056396,0.871582,0.430176,-25.312977,-7.282443,7.305344
-0.065918,0.915039,0.399414,-24.755726,-7.412214,8.633588
-0.07666,0.973145,0.378174,-29.984734,-21.305344,9.259542
-0.105225,1.092285,0.331543,-32.870228,-7.633588,11.564885
-0.095947,1.06958,0.378662,-45.045803,-11.916031,12.541985
-0.067871,0.998535,0.406006,-55.870228,-18.206106,15.709924
-0.046631,0.927979,0.404053,-60.862595,-12.961832,21.251909
-0.037842,0.903564,0.411621,-66.694656,-13.099236,23.847328
-0.014893,0.858398,0.381348,-63.770992,-19.977098,23.396946
-0.004639,0.864502,0.328857,-53.458015,-6.984733,22.251909
-0.024414,0.887207,0.322021,-51.801525,-4.740458,16.022902
-0.046143,0.883301,0.355225,-56.450382,-7.885496,12.610687
-0.047119,0.895508,0.421387,-65.824425,-9.59542,12.450381
-0.028564,0.883301,0.482422,-81.076332,-14.770992,9.267176
-0.015625,0.792969,0.574951,-90.977097,-22.900763,5.419847
0.018311,0.753662,0.570557,-84.061066,-18.343512,3.122137
0.035645,0.740723,0.487793,-76.381676,-18.389313,-1.465649
0.056396,0.799561,0.398193,-68.206108,-11.931297,-2.709924
0.054932,0.811279,0.405518,-71.625954,-8.427481,-7.022901
0.06958,0.790039,0.329346,-65.122139,-6.709924,-7.480916
0.108887,0.766846,0.325439,-62.778625,-6.91603,-5.51145
0.121094,0.729248,0.320801,-57.900764,-7.358778,-3.129771
0.12915,0.677734,0.339355,-56.992367,-8.603053,0.259542
0.128418,0.626465,0.373779,-52.167938,-8.251908,4.549618
0.116699,0.607422,0.404297,-49.007633,-8.824428,8.40458
0.108398,0.620361,0.431885,-47.427483,-10.076336,10.343512
0.09668,0.653809,0.430664,-49.969467,-7.114504,7.900764
0.071777,0.681641,0.44873,-55.38168,-1.992366,3.10687
0.076904,0.72998,0.42334,-57.450382,5.534351,-0.40458
0.073486,0.749023,0.440186,-58.603054,14.015267,-4.59542
0.076172,0.704102,0.473389,-59.770992,22.496183,-8.305344
0.056396,0.644287,0.482666,-57.893131,27.854961,-9.977099
0.030762,0.607422,0.508789,-62.992367,30.106871,-13.709924
0.008545,0.584229,0.504639,-76.030533,29.946566,-19.519083
-0.030029,0.596436,0.464844,-81.259544,28.572519,-24.022902
-0.056152,0.626953,0.476807,-80.992363,26.404581,-24.992367
-0.059082,0.614014,0.516113,-76.64122,25.87023,-23.236641
-0.058838,0.613525,0.530762,-72.312981,23.755726,-20.091602
-0.054199,0.628906,0.574463,-73.229004,22.755726,-14.633588
-0.068604,0.625977,0.562988,-79.824425,23.335878,-10.969465
-0.060547,0.606445,0.549316,-92.007637,21.290077,-8.496183
-0.063232,0.559326,0.517578,-101.832062,17.893129,-9.748092
-0.049561,0.56958,0.508057,-107.625954,16.358778,-12.099236
-0.052979,0.571289,0.513916,-110.030533,14.839695,-13.549619
-0.052979,0.602051,0.542969,-112.610687,13.183207,-14.984733
-0.061768,0.595215,0.622803,-114.557251,10.977099,-18.435114
-0.056641,0.571289,0.671631,-118.778625,10.0,-21.335878
-0.07959,0.619141,0.688232,-122.847328,8.916031,-22.015266
-0.091553,0.668457,0.764648,-132.351151,6.40458,-19.244274
-0.122803,0.678223,0.816162,-138.145035,7.526718,-16.916031
-0.168701,0.683594,0.810791,-141.908401,7.38168,-14.351145
-0.17334,0.598633,0.822998,-144.07634,6.862596,-13.022901
-0.161377,0.489746,0.849854,-139.328247,5.549618,-12.450381
-0.162354,0.422607,0.859375,-137.832062,1.282443,-9.938931
-0.144287,0.301758,0.887451,-142.2061,-3.335878,-10.480916
-0.128418,0.245117,0.889404,-145.396942,-6.145038,-9.099236
-0.105469,0.21167,0.904053,-145.541992,-5.48855,-6.725191
-0.095947,0.174805,0.949219,-144.687027,-3.267176,-10.572519
-0.087646,0.111572,1.012939,-140.145035,-2.160305,-17.213741
-0.101807,-0.011475,1.094727,-134.28244,-2.51145,-21.51145
-0.116211,-0.029297,1.175293,-127.625954,-3.282443,-23.603054
-0.154785,0.060547,1.265869,-134.694656,-7.503817,-23.076336
-0.213623,0.168945,1.335693,-154.488556,-9.160305,-23.770992
-0.293213,0.279053,1.326416,-173.015274,-12.083969,-26.770992
-0.348389,0.273438,1.319824,-187.687027,-12.763359,-21.801527
-0.350342,0.177734,1.337158,-193.92366,-19.67939,-15.351145
-0.311279,0.071777,1.358398,-188.946564,-20.0,-6.145038
-0.231689,-0.108887,1.474609,-193.488556,-18.412214,2.816794
-0.185059,-0.205078,1.53833,-184.977097,-12.557252,3.40458
-0.158691,-0.180176,1.557373,-173.053436,-4.099236,6.503817
-0.135742,-0.206055,1.512939,-174.137405,6.198473,10.587787
-0.130127,-0.27124,1.422119,-186.374039,9.740458,12.954199
-0.139648,-0.417725,1.363037,-192.099243,10.526717,12.900764
-0.088623,-0.612305,1.25708,-190.274811,6.053435,9.274809
-0.076172,-0.667969,1.150635,-170.534348,1.160305,0.694656
-0.061279,-0.664062,1.104736,-141.900757,-1.290076,-7.564886
-0.095459,-0.590332,1.153809,-128.152664,-5.877862,-16.70229
-0.136475,-0.568115,1.294189,-119.839691,-12.717557,-17.404581
-0.172363,-0.540771,1.411133,-108.099236,-20.534351,-8.824428
-0.171143,-0.450684,1.479248,-98.076332,-28.442749,-5.366412
-0.149414,-0.441406,1.465332,-99.870232,-36.633587,-2.969466
-0.105957,-0.480469,1.417969,-94.465652,-40.114502,2.412214
-0.065918,-0.527588,1.424316,-80.748093,-40.572517,4.38168
-0.008545,-0.629883,1.497314,-75.305344,-37.175571,6.664122
0.013428,-0.670654,1.453125,-69.297707,-26.580153,-0.129771
0.050537,-0.613525,1.241943,-57.038166,-41.167938,-14.106871
0.0354,-0.629639,1.30957,-55.900764,-26.969465,-15.137404
0.036621,-0.63916,1.246338,-43.725189,-30.908398,-16.007633
0.065674,-0.649414,1.23584,-38.67939,-32.732826,-12.427481
0.088867,-0.682373,1.190186,-22.816793,-35.015266,-12.793893
0.096191,-0.74292,1.154541,-6.770992,-37.595421,-11.633588
0.098877,-0.7229,1.174072,-4.908397,-37.419846,-15.076336
0.100586,-0.683105,1.168213,-0.480916,-33.114502,-22.29771
0.063232,-0.631836,1.191162,3.801527,-27.862595,-25.778625
0.031738,-0.554199,1.156738,5.961832,-21.603054,-27.648855
-0.01416,-0.501465,1.131348,4.625954,-13.664123,-32.778625
-0.033691,-0.470459,1.119629,-0.099237,-6.198473,-36.687023
-0.038574,-0.430176,1.164551,-3.503817,0.78626,-37.908398
-0.029053,-0.416748,1.207031,0.152672,8.61832,-38.335876
-0.020508,-0.399658,1.25415,-1.564885,13.969465,-39.450382
-0.009033,-0.366699,1.234131,4.954198,18.564886,-39.267174
-0.020752,-0.339111,1.19458,13.793893,19.954199,-37.0
-0.025635,-0.294678,1.148926,24.465649,18.274809,-31.48855
-0.031006,-0.224854,1.140869,28.824427,15.679389,-28.244274
-0.035645,-0.209717,1.137939,29.290077,12.335877,-24.290077
-0.042725,-0.182617,1.160889,27.267176,17.610687,-20.549618
-0.031982,-0.191895,1.121094,31.435114,8.290076,-15.480916
-0.020264,-0.195068,1.107666,32.198475,8.977099,-8.748092
-0.007568,-0.192871,1.042969,35.908398,10.458015,-2.480916
0.003906,-0.171875,1.002686,33.473282,12.061069,2.145038
0.025146,-0.188232,0.982422,27.877863,14.221375,2.656489
0.03125,-0.224609,0.958008,24.610687,15.450381,3.603053
0.047119,-0.203125,0.931885,20.19084,14.679389,2.572519
0.052246,-0.16748,0.916016,14.916031,14.320611,-0.022901
0.049561,-0.17627,0.944336,10.427481,12.175572,-0.038168
0.05542,-0.213867,0.928711,12.068703,10.206107,1.129771
0.040039,-0.234619,0.936523,15.977099,8.167939,-1.030534
0.037109,-0.233398,0.934326,14.366412,6.610687,-1.045802
0.010498,-0.213623,0.947754,12.267176,5.21374,1.305344
0.003418,-0.225098,0.962402,10.755725,3.374046,2.450382
0.007568,-0.222656,0.980469,8.732824,2.19084,3.687023
0.012451,-0.239258,1.012207,5.320611,0.824427,7.152672
0.019775,-0.254639,1.037109,2.748092,1.145038,7.389313
0.020264,-0.262451,1.036377,3.412214,1.89313,5.534351
0.018311,-0.269531,1.037109,-1.847328,0.748092,4.099236
0.019287,-0.302246,1.032471,-4.389313,-0.793893,2.587786
0.013916,-0.308105,1.057129,-4.183206,-1.305344,-2.946565
0.010498,-0.289795,1.053711,-2.427481,-3.564885,-6.610687
0.001709,-0.304932,1.076172,0.618321,-6.641222,-5.175572
0.019043,-0.322998,1.090332,5.08397,-8.793893,-3.40458
0.013916,-0.353271,1.141602,8.557252,-8.992367,-3.40458
0.015137,-0.371826,1.211182,5.473282,-7.984733,-2.778626
-0.000732,-0.389648,1.195312,3.916031,-6.503817,-3.763359
-0.023438,-0.434326,1.197754,15.396947,-3.877863,-3.801527
-0.045654,-0.464355,1.249268,28.305344,-6.458015,-3.854962
-0.044922,-0.426025,1.300781,39.053436,-10.022901,-2.877863
-0.029541,-0.35791,1.350586,47.244274,-13.946565,-0.984733
-0.032715,-0.348389,1.398193,50.770992,-16.832062,2.29771
-0.033691,-0.393066,1.376953,54.076336,-20.61832,9.877863
-0.037598,-0.384766,1.35376,50.893131,-23.946566,14.335877
-0.038574,-0.364258,1.305908,45.961834,-25.541985,13.145039
-0.030029,-0.327148,1.273438,50.366413,-26.152672,13.671756
-0.014648,-0.236328,1.284424,53.786259,-28.519083,16.167938
0.046875,-0.234131,1.320312,57.419846,-29.12977,15.083969
0.076904,-0.273682,1.373535,68.984734,-26.954199,13.793893
0.094727,-0.26709,1.372803,80.198471,-20.610687,12.816793
0.077881,-0.191406,1.31958,84.519081,-12.053435,9.435115
0.058105,-0.13208,1.273682,77.763359,-5.267176,3.885496
0.024902,-0.120361,1.258545,73.244278,0.633588,1.152672
0.029297,-0.185059,1.196045,69.64122,6.274809,1.114504
0.043213,-0.230469,1.108643,66.786263,8.015267,3.274809
0.085693,-0.308594,1.097656,65.648857,6.946565,6.625954
0.123291,-0.321289,1.220459,66.725189,-2.083969,8.167939
0.165527,-0.364258,1.361328,80.32061,-9.091603,13.328244
0.135986,-0.37207,1.387451,90.328247,-13.496183,10.854961
0.090576,-0.44751,1.286865,96.610687,-16.984734,5.19084
