AX,AY,AZ,GX,GY,GZ
0.043945,0.672363,0.839844,-41.030533,-0.251908,-13.320611
0.044678,0.648926,0.853027,-45.458015,0.480916,-13.770992
0.054688,0.626953,0.827393,-52.770992,4.534351,-13.534351
0.07666,0.62915,0.809814,-59.122139,10.030535,-13.687023
0.081055,0.614502,0.799072,-59.38168,15.526717,-13.465649
0.071777,0.595947,0.803467,-55.595421,20.145039,-12.679389
0.08252,0.554199,0.865479,-46.786259,22.526718,-11.389313
0.061523,0.522217,0.892578,-34.801525,24.267176,-10.977099
0.041748,0.499756,0.865967,-29.305344,24.496183,-7.160306
0.039307,0.487305,0.853271,-26.549618,25.0,-6.091603
0.029297,0.467285,0.854004,-23.106871,23.641222,-5.885496
0.005127,0.496094,0.849854,-21.19084,20.236641,-7.29771
-0.022217,0.521484,0.845947,-23.610687,16.580153,-4.748092
-0.044434,0.547119,0.873047,-33.183205,12.778625,-2.961832
-0.044922,0.551758,0.878662,-46.221375,10.526717,-0.687023
-0.031006,0.507324,0.876953,-58.106869,9.38168,2.114504
-0.000488,0.469727,0.867432,-62.595421,9.419847,1.534351
0.015381,0.41748,0.868164,-64.503815,10.877863,1.221374
0.02124,0.39502,0.862061,-62.229008,11.412213,0.541985
0.024902,0.382812,0.858887,-57.770992,12.725191,0.160305
0.014893,0.407227,0.842285,-55.145039,12.290076,0.045802
0.023926,0.414795,0.845215,-52.580154,10.748092,-0.816794
0.022705,0.421875,0.826904,-51.595421,8.38168,-0.977099
0.021729,0.428223,0.826416,-52.053436,4.885496,-1.564885
0.023682,0.424316,0.808838,-50.34351,1.21374,-2.290076
0.023438,0.420898,0.821533,-46.519085,-1.282443,-3.083969
0.020996,0.4375,0.8396,-46.366413,-2.0,-3.916031
0.015869,0.439209,0.85498,-50.259541,-2.854962,-5.19084
0.011719,0.443115,0.859863,-55.473282,-3.603053,-5.633588
0.01709,0.449951,0.88916,-59.389313,-3.328244,-6.885496
0.017578,0.448486,0.897461,-62.946564,-2.381679,-8.122137
0.027832,0.454834,0.901855,-62.847328,0.923664,-8.374045
0.023193,0.459473,0.887939,-61.442749,5.244275,-9.122137
0.010498,0.473633,0.888916,-56.793892,6.091603,-8.648855
0.00708,0.494873,0.919189,-50.931297,5.137404,-9.122137
-0.003906,0.505615,0.938721,-47.709923,1.51145,-9.076336
-0.010254,0.505371,0.957031,-47.603054,-2.022901,-7.374046
-0.005615,0.491455,0.961914,-51.190838,-2.671756,-6.221374
0.0,0.455811,0.958008,-55.9771,-1.656489,-5.839694
-0.006104,0.446045,0.938965,-60.412212,-0.938931,-5.068702
-0.024902,0.451416,0.919189,-62.213741,-0.427481,-4.687023
-0.03418,0.464355,0.914795,-64.244278,-2.21374,-5.183206
-0.034912,0.437744,0.931396,-65.610687,-6.10687,-7.007634
-0.030273,0.417725,0.95874,-65.916031,-8.427481,-6.160306
-0.030762,0.381836,0.943359,-67.748093,-7.229008,-4.931298
-0.017822,0.345215,0.940918,-66.145035,-4.10687,-2.839695
0.003906,0.33667,0.95874,-61.496181,-0.51145,0.343511
0.001465,0.33252,0.948975,-60.160305,1.236641,0.564885
-0.007568,0.332275,0.938232,-62.847328,1.290076,0.328244
0.001709,0.304443,0.922363,-67.335876,1.290076,1.022901
0.008789,0.273926,0.928467,-71.099236,0.541985,0.503817
0.007568,0.259766,0.956299,-71.160309,-0.687023,-0.534351
0.014404,0.261475,0.971924,-68.312981,-0.954198,-1.618321
0.016113,0.272217,0.957031,-65.213737,-2.832061,-2.564885
0.019531,0.265869,0.921875,-62.954197,-5.137404,-4.091603
0.031738,0.24707,0.905762,-64.664124,-7.824428,-5.992366
0.028809,0.243896,0.930908,-71.183205,-9.206107,-8.122137
0.029297,0.241455,0.929199,-79.610687,-8.389313,-10.572519
0.032227,0.22583,0.928467,-89.816795,-4.992366,-10.297709
0.038086,0.204102,0.91333,-95.091606,1.725191,-8.755725
0.04834,0.178955,0.896484,-93.35878,10.603053,-6.992366
0.037842,0.162109,0.88208,-92.114502,16.549618,-6.564886
0.018066,0.139404,0.863281,-88.671753,19.290077,-6.198473
0.010254,0.103516,0.841797,-88.099236,20.496183,-6.167939
0.004395,0.080078,0.831543,-93.709923,22.442749,-5.732824
-0.019775,0.026611,0.822266,-100.709923,26.458015,-5.10687
-0.026855,0.004395,0.824707,-105.419846,30.351145,-1.679389
-0.035645,-0.023193,0.822266,-105.015266,35.496181,1.183206
-0.041748,-0.035889,0.811279,-100.96183,38.984734,3.381679
-0.046387,-0.046143,0.762939,-95.984734,41.030533,6.59542
-0.068115,-0.076172,0.754639,-90.061066,43.419846,6.847328
-0.054199,-0.109375,0.750977,-85.099236,43.984734,8.541985
-0.069092,-0.141113,0.748535,-84.824425,46.793892,7.305344
-0.089355,-0.213623,0.741699,-89.793892,49.0229,6.862596
-0.108887,-0.218018,0.740967,-87.190842,47.442749,5.0
-0.14624,-0.199463,0.81665,-80.725189,48.938931,7.641222
-0.181396,-0.147949,0.888916,-63.969467,47.404579,9.312977
-0.171631,-0.078613,0.931641,-52.564884,23.603054,9.519084
-0.162598,-0.034668,0.927002,-47.625954,-4.503817,5.770992
-0.131348,-0.04126,0.925537,-44.923664,-26.312977,8.091603
-0.075195,-0.067871,0.933838,-67.251907,-28.80916,8.793893
-0.109619,-0.07251,1.009277,-101.648857,-22.977098,5.129771
-0.074219,-0.102295,1.009521,-115.656487,-14.625955,11.175572
-0.094482,-0.113037,1.054932,-128.404587,-13.320611,9.572519
-0.065918,-0.125488,0.990234,-106.39695,5.664122,19.572519
-0.048828,-0.137451,0.95459,-108.068703,18.183207,24.229008
-0.053223,-0.131592,0.989258,-118.946564,32.534351,28.236641
-0.048828,-0.12793,1.02124,-140.625961,52.664124,28.938931
-0.039795,-0.138916,0.982422,-169.610687,70.167938,24.877863
-0.006104,-0.16626,0.857178,-191.229004,48.748093,14.824428
-0.086914,-0.210449,0.728027,-199.671753,88.061066,11.396947
-0.103516,-0.26416,0.638184,-194.702286,89.839691,6.725191
-0.11377,-0.300537,0.602539,-178.832062,79.824425,3.763359
-0.115479,-0.396973,0.61377,-155.259537,63.091602,2.442748
-0.137451,-0.563477,0.709473,-133.549622,44.763359,-3.091603
-0.190186,-0.705566,0.781494,-108.480919,23.557251,-7.48855
-0.272461,-0.786865,0.988525,-91.458015,6.122138,-8.022901
-0.351318,-0.894775,1.02002,-64.923668,1.610687,-3.358779
-0.325195,-1.011475,0.987549,-65.259544,-0.076336,-9.908397
-0.296631,-1.091797,0.988281,-82.854965,-2.59542,-12.534351
-0.323242,-1.119873,1.025635,-111.854965,29.984734,-9.946565
-0.40625,-1.029053,1.07666,-124.748093,61.625954,5.19084
-0.424072,-0.946533,1.189697,-158.244278,96.083969,16.916031
-0.494629,-0.956787,1.262207,-164.152664,109.389313,13.549619
-0.515381,-0.936768,1.269043,-167.854965,92.770996,5.992366
-0.5271,-1.026611,1.31543,-170.809158,90.106873,-1.099237
-0.4729,-1.028564,1.335938,-114.480919,74.366409,-12.854961
-0.505127,-1.070801,1.303223,-97.786263,81.748093,-5.877862
-0.547119,-1.101074,1.304443,-143.549622,84.824425,-7.763359
-0.607422,-1.110352,1.149414,-190.877869,86.854965,-9.442748
-0.598145,-1.15918,1.19751,-159.022903,-51.717556,-17.847328
-0.606689,-1.24292,0.826172,-175.137405,-24.48855,-9.59542
-0.45459,-1.406982,0.792236,-181.587784,-25.152672,-28.442749
-0.405518,-1.579102,0.716064,-211.312973,-33.595421,-56.290077
-0.238281,-1.647705,0.411621,-178.755722,-63.61832,-72.213737
-0.13623,-1.671875,0.232422,-135.045807,-65.526718,-73.595421
-0.09082,-1.579834,0.183594,-79.755722,-40.221375,-65.633591
-0.108643,-1.467529,0.210449,-42.824429,-11.030535,-59.091602
-0.139893,-1.399414,0.257568,-22.832062,32.511452,-54.557251
-0.166748,-1.340576,0.472412,-4.435114,24.435114,-58.816795
-0.186768,-1.265381,0.560547,5.763359,35.129772,-51.595421
-0.194824,-1.158447,0.531494,-1.458015,33.122139,-44.778625
-0.165527,-1.034424,0.491211,-7.59542,30.175573,-34.267174
-0.127686,-0.922852,0.504395,-0.458015,30.770992,-21.923664
-0.066406,-0.831787,0.431152,-11.114504,35.083969,-12.488549
0.034668,-0.855957,0.53125,-1.244275,-8.175572,-19.763359
-0.01709,-0.882812,0.311768,4.603054,28.732824,-9.038168
-0.043457,-0.939697,0.274902,17.427481,10.320611,-7.580153
-0.105713,-1.040771,0.345703,22.122137,21.152672,-8.870229
-0.003662,-1.063477,0.160645,102.473282,-71.648857,-20.366413
-0.266357,-1.125244,0.506348,7.099236,2.129771,-16.67939
-0.271973,-1.131348,0.719727,-9.59542,-3.282443,-20.480917
-0.275146,-1.162109,0.678467,-33.045803,-2.045802,-31.145039
-0.283447,-1.157959,0.71167,-30.717558,-7.312977,-31.053434
-0.355713,-1.131592,0.685303,-20.648855,-21.961832,-21.374046
-0.281006,-1.157227,0.730469,-3.908397,-38.938931,-17.687023
-0.249268,-1.141357,0.708984,6.320611,-49.465649,-17.709923
-0.210205,-1.141357,0.712158,12.0,-49.167938,-14.526717
-0.168701,-1.155762,0.737549,21.854961,-38.412212,-12.59542
-0.180908,-1.11499,0.511475,-9.083969,45.587788,-0.709924
-0.100586,-1.117188,0.635986,11.450381,5.91603,-18.053434
-0.071533,-1.091797,0.749268,15.648855,27.038168,-16.687023
-0.095947,-0.988281,0.731934,43.244274,25.099237,-15.480916
-0.101074,-0.875977,0.726318,68.236641,24.923664,-14.267176
-0.134521,-0.785889,0.694824,62.045803,29.717558,-10.473283
-0.12207,-0.750488,0.700684,24.030535,26.969465,-14.572519
-0.130615,-0.69458,0.626465,52.961834,27.083969,-8.534351
-0.127197,-0.659424,0.582764,57.793892,19.427481,-7.267176
-0.118652,-0.625244,0.612793,57.152672,12.564885,-7.412214
-0.118652,-0.631836,0.623291,58.198475,4.946565,-7.526718
-0.108887,-0.657715,0.614502,52.412212,-0.610687,-7.572519
-0.106689,-0.661377,0.61377,52.854961,-5.992366,-7.389313
-0.098145,-0.671143,0.645264,52.870228,-7.08397,-7.564886
-0.098389,-0.712158,0.653809,50.854961,-6.694656,-4.679389
-0.117676,-0.697266,0.675781,46.038166,-5.40458,-0.274809
-0.116211,-0.683838,0.65918,36.061069,0.290076,1.717557
-0.127686,-0.713135,0.659424,21.389313,5.748092,3.480916
-0.132568,-0.71582,0.667725,7.435114,7.610687,3.969466
-0.135254,-0.719238,0.649414,-4.389313,7.160306,2.335878
-0.122314,-0.750488,0.655762,-15.870229,5.08397,-1.038168
-0.110107,-0.781006,0.658691,-21.221375,3.549618,-3.862595
-0.0979,-0.800781,0.641113,-20.175573,2.396947,-5.053435
-0.089355,-0.827148,0.609131,-13.59542,-1.091603,-8.061069
-0.099609,-0.875732,0.607666,-12.236641,-6.572519,-10.312977
-0.118408,-0.916992,0.647949,-19.290077,-13.022901,-12.679389
-0.118652,-0.952148,0.632812,-30.977098,-21.12977,-14.152672
-0.098633,-0.997803,0.648438,-32.335876,-27.641222,-17.801527
-0.076904,-1.057129,0.609619,-26.740458,-31.259542,-20.526718
-0.04248,-1.112549,0.55127,-11.885496,-32.091602,-19.648855
-0.015381,-1.151611,0.554688,12.519084,-30.572519,-22.717558
-0.024414,-1.16748,0.579834,44.0,-33.007633,-24.496183
-0.041504,-1.166992,0.593018,74.694656,-42.885498,-17.19084
-0.048828,-1.150879,0.660156,90.511452,-51.106869,-10.763359
-0.07251,-1.150391,0.783203,101.755722,-47.236641,-9.503817
-0.102783,-1.14502,1.006348,76.290077,-11.106871,-4.557252
-0.11084,-1.099854,1.043701,121.694656,-4.450382,5.862596
-0.11792,-1.076416,1.082764,133.770996,18.70229,16.923664
-0.121582,-1.034424,1.023438,141.0,35.290077,24.229008
-0.132812,-1.005859,0.981689,140.167938,40.374046,25.045801
-0.142578,-0.998047,0.94458,139.870224,43.946564,23.358778
-0.174805,-0.970215,0.936768,144.183212,35.412212,16.412214
-0.203613,-0.871094,0.920898,139.419846,19.167938,14.78626
-0.250488,-0.733154,0.94043,112.099236,11.358779,11.0
-0.241455,-0.630859,0.897217,109.877861,5.977099,14.335877
-0.24707,-0.63501,0.917725,112.618324,-12.679389,14.312977
-0.232178,-0.722412,0.925049,89.091606,-21.832062,16.083969
-0.17749,-0.807373,0.947021,70.633591,-28.083969,17.87023
-0.128662,-0.839844,0.980469,62.366413,-27.763359,17.137405
-0.08374,-0.799561,0.974365,66.862595,-24.580153,18.740458
-0.094482,-0.76123,0.929932,83.458015,-22.67939,18.175573
