AX,AY,AZ,GX,GY,GZ
0.090576,0.981934,0.060547,-6.458015,-2.725191,5.954198
0.07666,0.994629,0.050049,-5.687023,-2.48855,4.900764
0.074951,0.993164,0.065918,-5.167939,-3.641221,2.770992
0.058838,0.989746,0.053223,-4.885496,-4.694656,1.557252
0.059326,1.002686,0.067871,-4.374046,-4.29771,2.183206
0.047119,0.998291,0.061523,-3.015267,-3.984733,2.679389
0.036133,1.007568,0.064209,-1.465649,-2.328244,3.587786
0.027832,1.026611,0.070557,-0.603053,-1.083969,2.931298
0.017578,1.01709,0.074707,-0.175573,-1.21374,2.793893
0.000244,1.028809,0.081543,-0.549618,-1.366412,5.030534
0.010254,1.025635,0.077393,-1.450382,-2.10687,8.961832
-0.018555,1.019531,0.073242,0.923664,-2.320611,8.366412
-0.037598,1.022705,0.055176,1.503817,0.473282,13.824428
-0.052734,1.036133,0.05835,2.419847,3.603053,16.824427
-0.074463,1.047363,0.068848,2.083969,6.015267,16.19084
-0.107666,1.05127,0.080078,2.877863,4.312977,16.938931
-0.125732,1.043213,0.086426,3.10687,-0.389313,14.961832
-0.129883,1.022705,0.088867,3.167939,-6.282443,7.78626
-0.11499,1.011475,0.07251,2.900763,-11.671756,-0.625954
-0.115479,1.019287,0.064941,2.801527,-14.59542,-4.519084
-0.122314,1.032959,0.054688,2.717557,-13.045801,-6.160306
-0.114014,1.046875,0.042725,2.022901,-13.572519,-4.251908
-0.108887,1.028564,0.054688,-0.618321,-13.557252,-1.442748
-0.10083,0.980957,0.008789,-0.732824,-11.351145,12.702291
-0.117432,0.910156,0.008789,-7.900764,0.038168,36.282444
-0.144775,0.927979,-0.001221,-10.946565,8.664123,49.854961
-0.227051,0.928711,0.019775,-13.80916,12.725191,54.908398
-0.296387,0.942383,0.035156,-14.236641,10.687023,53.0
-0.299805,0.976807,0.048584,-14.0,4.740458,43.709923
-0.247559,1.013428,0.02832,-11.236641,-3.412214,35.099236
-0.21167,1.021973,-0.01123,-7.59542,-4.969466,37.068703
-0.195312,1.031494,-0.02832,-5.251908,0.10687,45.717556
-0.173828,1.029785,-0.029541,-4.450382,5.465649,54.473282
-0.163818,1.01709,-0.028564,-2.908397,6.778626,62.282444
-0.165527,1.013428,-0.032471,-2.312977,7.679389,64.908394
-0.188721,1.016113,-0.035889,-2.427481,6.587786,66.35878
-0.188721,1.038574,-0.043213,-3.442748,4.244275,65.992363
-0.177002,1.051514,-0.058594,-5.885496,1.091603,65.198471
-0.143066,1.026123,-0.061035,-6.961832,-2.251908,62.816795
-0.106445,1.008545,-0.066406,-8.221375,-6.465649,61.694656
-0.07959,0.983154,-0.052734,-10.725191,-13.198473,65.160309
-0.053223,0.987793,-0.033203,-13.519084,-23.083969,69.03817
-0.026611,0.94751,-0.032715,-17.053434,-32.274811,77.259544
0.000977,0.901855,-0.033203,-19.198473,-38.67939,86.740456
0.032959,0.841797,-0.017578,-20.465649,-40.099236,94.946564
0.07373,0.792725,-0.018555,-18.435114,-33.465649,95.816795
0.109375,0.771484,-0.033203,-14.206107,-20.709923,94.335876
0.126709,0.76709,-0.035645,-8.351145,-7.412214,92.908394
0.157227,0.721436,-0.056641,-1.083969,9.175572,85.083969
0.178955,0.756104,-0.033447,4.725191,21.244274,80.664124
0.220947,0.783203,-0.016113,7.832061,25.305344,83.450378
0.248535,0.774414,-0.003662,7.519084,23.503817,86.343513
0.240479,0.734863,0.022461,5.526718,16.496183,91.664124
0.246582,0.718018,0.04248,5.091603,11.343512,97.564888
0.268066,0.6875,0.055176,3.89313,6.572519,101.893127
0.293213,0.660156,0.055664,2.091603,2.679389,105.221375
0.316406,0.645508,0.054932,0.045802,0.603053,106.328247
0.306152,0.651611,0.04834,-2.740458,0.167939,108.32061
0.299805,0.669678,0.031738,-6.412214,-2.946565,108.870232
0.310059,0.673584,0.01416,-12.511451,-7.198473,102.870232
0.367676,0.649658,-0.00293,-20.435114,-1.816794,89.083969
0.468262,0.591064,-0.009766,-25.12977,9.816793,81.381676
0.596924,0.56665,-0.025635,-25.198473,20.648855,83.938934
0.688477,0.562744,-0.01001,-20.366413,29.251909,98.816795
0.733154,0.573242,0.00293,-15.946565,31.312977,111.381676
0.781982,0.591309,0.022705,-14.145039,27.763359,119.083969
0.798584,0.607666,0.046875,-9.977099,21.816793,138.748093
0.76709,0.605225,0.071533,-5.145038,19.106871,154.839691
0.666992,0.5896,0.094482,-4.587786,17.580153,159.839691
0.578125,0.517334,0.127197,-5.076336,18.022902,147.938934
0.599365,0.496094,0.145996,-5.801527,14.671756,119.816795
0.567627,0.439453,0.128418,-4.839694,9.076336,118.893127
0.575439,0.419922,0.115967,-7.572519,1.534351,103.946564
0.616211,0.371094,0.097168,-7.312977,0.152672,93.28244
0.607178,0.28418,0.126465,-4.343512,4.366412,89.053436
0.633301,0.3125,0.160645,-4.076336,7.793893,98.274811
0.716797,0.318115,0.194824,-5.412214,6.900764,114.404579
0.751709,0.265381,0.200439,-4.946565,4.305344,128.610687
0.793457,0.200439,0.190186,-5.854962,4.908397,139.312973
0.801025,0.119385,0.197754,-5.969466,1.984733,135.916031
0.836426,0.055908,0.186768,-2.977099,2.206107,129.984726
0.864258,0.042725,0.171875,-0.984733,3.717557,124.580154
0.831055,0.084473,0.178955,1.503817,-3.656489,109.221375
0.849609,0.101807,0.145264,1.183206,-9.419847,96.595421
0.862061,0.102539,0.101318,2.274809,-10.229008,92.977097
0.863525,0.144531,0.090088,3.908397,-8.229008,94.137405
0.861084,0.163818,0.076416,4.053435,-3.549618,104.122139
0.823486,0.208496,0.071045,0.458015,0.572519,116.748093
0.824463,0.228516,0.074951,-2.572519,2.152672,124.916031
0.772705,0.20874,0.069824,-6.70229,6.557252,125.946564
0.746338,0.206787,0.070068,-11.709924,14.167939,122.824425
0.75293,0.185059,0.063477,-16.48855,21.526718,120.343513
0.781494,0.155518,0.057373,-22.603054,25.152672,113.862595
0.788818,0.146729,0.080566,-26.503817,21.541985,110.625954
0.85791,0.106934,0.090088,-31.725191,16.145039,111.389313
0.963379,0.05127,0.072754,-36.259541,14.755725,130.671753
1.03833,-0.004639,0.088623,-40.0229,10.992367,157.221375
1.120117,0.003174,0.114746,-46.496181,9.259542,173.839691
1.162842,0.077148,0.147461,-52.862595,3.977099,180.114502
1.223389,0.143799,0.203613,-56.435116,-4.38168,178.106873
1.278076,0.163574,0.182373,-58.992367,-8.870229,172.656494
1.364746,0.12207,0.17041,-56.648853,-8.916031,158.221375
1.525879,0.109131,0.150879,-50.793892,-8.969465,147.664124
1.646484,0.057617,0.126465,-40.740459,-7.870229,147.618317
1.625244,-0.016846,0.143555,-21.900763,-12.977099,144.938934
1.563721,-0.082764,0.166016,-6.396946,-10.870229,141.328247
1.442627,-0.216553,0.133545,-1.435115,2.80916,143.061066
1.418945,-0.401611,0.242676,12.832061,10.198473,140.198471
1.398193,-0.381348,0.252197,12.206107,26.839695,142.381683
1.366699,-0.375488,0.256104,6.778626,38.770992,135.70993
1.278076,-0.397949,0.274902,-2.160305,46.122139,127.099236
1.167969,-0.496826,0.275391,0.572519,56.610687,124.389313
1.104736,-0.547607,0.293457,0.900763,64.748093,120.389313
1.05835,-0.591309,0.361572,3.992366,62.351147,114.526718
1.090088,-0.592529,0.359863,9.893129,54.67939,123.03817
1.190674,-0.624268,0.358643,10.526717,40.893131,121.770996
1.265625,-0.668945,0.342773,14.129771,24.122137,113.152672
1.294189,-0.61792,0.307861,15.824428,9.717557,106.473282
1.30835,-0.554688,0.293457,13.198473,-1.0,95.946564
1.3479,-0.503174,0.237549,7.435114,-8.603053,84.946564
1.308838,-0.524902,0.220459,4.320611,-13.129771,76.251907
1.280273,-0.532715,0.184326,2.51145,-13.091603,69.099236
1.240723,-0.528564,0.175537,1.160305,-7.961832,66.068703
1.211914,-0.475586,0.182129,1.167939,-5.80916,62.900764
1.197754,-0.490479,0.148682,-1.229008,0.923664,63.877861
1.156006,-0.495605,0.145996,-3.938931,9.343512,65.183205
1.112549,-0.438232,0.157959,-6.167939,13.519084,66.328247
0.987793,-0.456055,0.132568,-10.473283,14.114504,55.969467
0.983154,-0.467041,0.124756,-10.923664,18.015266,49.549618
0.866943,-0.548584,0.148438,-12.282443,24.19084,47.427483
0.779053,-0.621826,0.173584,-13.709924,27.450382,42.938931
0.798584,-0.676025,0.19458,-12.480916,26.832062,42.923664
0.878662,-0.690674,0.193848,-12.106871,23.053434,51.145039
0.971436,-0.682617,0.208984,-14.030535,14.236641,56.740459
1.019531,-0.68335,0.223877,-16.236641,9.030535,57.854961
1.002197,-0.689941,0.253418,-17.206106,5.435114,55.496181
0.917969,-0.69751,0.286621,-18.427481,3.206107,48.816795
0.847656,-0.692627,0.320557,-21.916031,-2.694656,41.396946
0.811279,-0.706299,0.318848,-27.824427,-13.122137,32.145039
0.841064,-0.746094,0.291992,-33.931297,-20.931297,19.175573
0.897461,-0.747803,0.266602,-38.076336,-26.412214,7.244275
0.989258,-0.726318,0.236084,-40.587788,-31.549618,-3.954198
1.073242,-0.72876,0.199951,-41.442749,-35.541985,-19.412214
1.129883,-0.712891,0.177979,-39.473282,-39.450382,-30.580153
1.141113,-0.681152,0.153564,-36.816795,-44.183205,-36.893131
1.156006,-0.640869,0.130371,-33.503819,-46.877861,-37.755726
1.163818,-0.589111,0.105713,-30.717558,-46.221375,-38.38168
1.217529,-0.555908,0.071777,-26.458015,-41.229008,-45.374046
1.193848,-0.54834,0.068359,-22.763359,-33.732826,-55.816795
1.189209,-0.500488,0.046387,-20.847328,-25.389313,-54.870228
1.144043,-0.456543,0.081787,-21.954199,-14.824428,-44.068703
1.159912,-0.436768,0.101807,-24.793894,-4.267176,-32.030533
1.126465,-0.415039,0.139404,-25.427481,3.51145,-24.862595
1.066895,-0.372803,0.162109,-26.091602,9.664123,-17.977098
0.99585,-0.314697,0.192139,-26.832062,11.641221,-14.267176
0.959473,-0.294922,0.193115,-28.244274,16.374046,-12.427481
0.944336,-0.26709,0.179199,-31.183207,18.564886,-12.679389
0.935303,-0.316162,0.197266,-30.923664,21.839695,-7.931298
0.953369,-0.335693,0.197998,-29.603054,22.954199,-10.778625
0.9646,-0.332275,0.198486,-24.015266,22.282442,-7.694656
0.937744,-0.334961,0.221436,-18.763359,19.519083,-11.145039
0.90918,-0.332275,0.205811,-14.519084,16.389313,-12.954199
0.92041,-0.332031,0.216064,-12.839695,13.038168,-8.893129
0.893555,-0.310059,0.19043,-11.816793,7.839694,-9.824428
0.912109,-0.313232,0.163818,-12.702291,6.770992,-5.625954
0.918457,-0.332275,0.165771,-13.519084,5.08397,-2.061069
0.932617,-0.342285,0.148682,-11.664123,2.496183,1.435115
0.95166,-0.364014,0.142334,-11.40458,0.450382,0.679389
0.973145,-0.378418,0.134766,-9.083969,2.557252,0.885496
1.003906,-0.38916,0.12207,-5.732824,-0.618321,3.122137
1.039795,-0.405273,0.100098,0.664122,-7.70229,6.877862
1.027832,-0.41748,0.094727,6.709924,-13.053435,6.022901
1.020264,-0.43042,0.0896,9.717557,-12.015267,3.335878
1.009766,-0.436035,0.088379,9.748092,-8.099236,-1.412214
1.013916,-0.427734,0.104004,10.419847,-4.557252,-5.755725
