AX,AY,AZ,GX,GY,GZ
-0.110352,0.895752,0.037598,-5.801527,-10.0,20.290077
-0.127441,0.92041,0.050049,-6.648855,-6.732824,21.206106
-0.114502,0.921387,0.060303,-6.519084,-2.206107,16.259542
-0.093506,0.932861,0.062256,-5.19084,1.977099,9.679389
-0.065186,0.94165,0.061768,-4.053435,6.396946,5.068702
-0.033203,0.943848,0.061279,-2.832061,10.076336,2.603053
-0.01709,0.950439,0.065918,-2.145038,12.068703,-1.328244
-0.018066,0.968018,0.056396,-1.748092,12.343512,-5.59542
-0.020996,0.974854,0.068115,-2.076336,10.587787,-7.709924
-0.024902,0.976562,0.044922,-2.175573,7.38168,-6.419847
0.0,0.988037,0.04541,-2.374046,3.290076,-7.740458
0.02832,0.994385,0.061279,-2.244275,0.175573,-7.961832
0.037109,1.000488,0.064209,-1.977099,-1.603053,-8.59542
0.034912,1.006348,0.062744,-1.931298,-3.984733,-11.923664
0.052734,1.012207,0.071533,-1.549618,-6.015267,-8.488549
0.054199,1.010986,0.073242,-1.229008,-7.648855,-2.068702
0.069336,1.015869,0.085449,-1.259542,-9.916031,-1.229008
0.111572,1.023438,0.09082,0.091603,-8.778625,-0.282443
0.128418,1.027344,0.087158,1.167939,-6.564886,-1.503817
0.155518,1.016357,0.0979,2.312977,-4.870229,-5.541985
0.173828,1.014648,0.095215,2.89313,-3.320611,-8.198473
0.193604,1.011475,0.080566,4.022901,-1.916031,-8.198473
0.20874,1.041992,0.080078,4.015267,-2.679389,-8.488549
0.221191,1.051514,0.074219,2.435115,-3.48855,-9.160305
0.233643,1.055908,0.06665,1.534351,-3.984733,-9.221375
0.255615,1.050293,0.067871,1.793893,-4.427481,-12.320611
0.253906,1.057129,0.059814,1.954198,-4.709924,-17.885496
0.242188,1.054443,0.055664,1.854962,-4.160306,-20.954199
0.237549,1.049072,0.055176,1.458015,-4.549618,-23.091602
0.236816,1.050293,0.049561,-0.549618,-6.328244,-26.450382
0.240967,1.04126,0.055176,-1.580153,-5.854962,-29.580153
0.245361,1.032715,0.067871,-1.503817,-4.274809,-34.122139
0.242432,1.027344,0.06958,-1.931298,-2.175573,-39.900764
0.216797,1.019043,0.061279,-1.694656,-0.129771,-44.70229
0.208496,1.013184,0.07373,-2.038168,0.496183,-46.969467
0.207764,1.002441,0.06958,-1.465649,0.572519,-45.9771
0.188477,0.998047,0.073242,-1.526718,1.328244,-47.122139
0.184082,1.00415,0.076416,-0.748092,2.427481,-48.145039
0.164062,0.992188,0.071045,0.374046,2.984733,-49.587788
0.14502,0.986572,0.080322,0.709924,2.778626,-51.099236
0.132324,0.991699,0.082031,0.312977,1.083969,-51.870228
0.108643,0.992432,0.076172,0.78626,-0.89313,-52.38168
0.092285,0.998291,0.065186,1.992366,-2.664122,-52.160305
0.086426,0.993408,0.062988,2.633588,-3.885496,-49.015266
0.093994,0.996094,0.058105,2.19084,-5.557252,-46.145039
0.09375,0.997559,0.064453,1.053435,-6.885496,-45.648853
0.096191,0.987549,0.061523,1.51145,-7.51145,-46.061069
0.099854,0.972168,0.063721,2.061069,-8.007633,-48.740459
0.090088,0.967041,0.062012,2.801527,-7.923664,-51.633587
0.094727,0.961426,0.070068,3.832061,-7.847328,-53.954197
0.098145,0.938477,0.075439,4.557252,-7.89313,-56.007633
0.10498,0.932129,0.08252,4.992366,-7.664122,-55.786259
0.121582,0.927246,0.0896,5.770992,-7.51145,-57.114502
0.119385,0.906494,0.083008,6.564886,-6.938931,-60.64122
0.114014,0.898682,0.090332,6.717557,-6.877862,-64.786263
0.10498,0.88501,0.0896,6.938931,-6.992366,-68.030533
0.092773,0.871826,0.089111,7.129771,-6.580153,-72.190842
0.084717,0.855469,0.080811,7.435114,-7.282443,-75.343513
0.071533,0.8479,0.091309,7.358778,-8.282443,-79.221375
0.061035,0.824707,0.077881,7.19084,-10.290076,-82.900764
0.049316,0.807373,0.073486,6.40458,-12.351145,-86.091606
0.0354,0.785645,0.061768,5.038168,-13.748092,-87.389313
0.01123,0.759521,0.061279,3.633588,-14.885496,-86.045799
-0.01123,0.749512,0.06543,1.969466,-16.335878,-84.480919
-0.037842,0.737061,0.070801,0.236641,-16.38168,-83.045799
-0.068848,0.732178,0.074707,1.259542,-13.549619,-81.137405
-0.082031,0.725586,0.066406,1.854962,-12.274809,-79.969467
-0.089111,0.720947,0.061768,1.977099,-11.755725,-80.778625
-0.085205,0.715576,0.056152,0.053435,-13.580153,-85.083969
-0.086426,0.716797,0.060791,-2.129771,-15.083969,-87.519081
-0.102783,0.714111,0.057373,-4.007634,-14.992367,-90.862595
-0.099609,0.686035,0.072021,-3.633588,-12.625955,-91.564888
-0.103271,0.673828,0.075195,-2.740458,-9.740458,-94.648857
-0.110596,0.667969,0.094727,-1.564885,-8.641221,-101.450378
-0.106201,0.640625,0.083984,-0.519084,-7.007634,-109.755722
-0.086914,0.62085,0.091064,1.564885,-6.473282,-112.755722
-0.091553,0.584229,0.095215,0.519084,-12.587787,-116.801529
-0.0979,0.555664,0.082764,-3.862595,-22.396946,-119.534348
-0.143799,0.515625,0.108643,-7.08397,-29.587786,-112.534348
-0.209717,0.47876,0.111084,-12.503817,-37.778625,-102.213737
-0.250977,0.458008,0.166504,-18.67939,-44.65649,-96.656487
-0.256348,0.395752,0.170898,-20.450382,-47.969467,-99.28244
-0.287598,0.352539,0.211914,-16.587786,-50.969467,-99.496185
-0.294434,0.302734,0.255371,-16.358778,-52.091602,-106.625954
-0.276855,0.265869,0.265381,-14.687023,-50.526718,-115.916031
-0.324463,0.236328,0.293701,-13.38168,-46.709923,-122.893127
-0.396484,0.193604,0.298584,-9.259542,-41.076336,-127.137405
-0.431152,0.199219,0.313477,-0.648855,-32.801525,-128.625961
-0.513428,0.224854,0.28125,4.541985,-23.633587,-137.244278
-0.573486,0.211426,0.267334,7.526718,-24.839695,-154.458008
-0.612549,0.15918,0.26709,3.580153,-27.977098,-166.511444
-0.68335,0.148193,0.279785,-4.450382,-36.419846,-167.534348
-0.789551,0.215332,0.324219,-20.152672,-41.519085,-161.259537
-0.913086,0.261719,0.39209,-31.793894,-36.694656,-153.015274
-0.887695,0.226318,0.443115,-30.091602,-22.213741,-144.022903
-0.809814,0.166992,0.480957,-13.312977,-8.160305,-146.557251
-0.752441,0.110352,0.42627,-3.48855,-0.908397,-147.396942
-0.751221,0.07959,0.394287,-1.816794,-3.21374,-158.618317
-0.773438,-0.026611,0.323486,-1.740458,-8.59542,-158.07634
-0.826172,-0.199951,0.291504,-1.793893,-7.763359,-133.862595
-0.781738,-0.373535,0.315674,-8.656488,-16.206106,-103.610687
-0.779297,-0.533203,0.307129,-17.427481,-26.778625,-80.625954
-0.730957,-0.598633,0.3479,-23.625954,-27.221375,-75.793892
-0.903564,-0.5,0.304688,-29.664122,-28.709923,-94.236641
-1.037598,-0.329346,0.227295,-11.557252,-33.580154,-136.083969
-1.160889,-0.175293,0.178467,-21.503817,-6.641222,-172.748093
-1.388184,-0.156494,0.198242,-16.725191,10.625955,-212.35878
-1.579834,-0.07959,0.21875,6.847328,28.969465,-220.297714
-1.789062,-0.069824,0.245605,33.954197,53.64122,-249.587784
-1.893066,-0.19751,0.236084,64.778625,90.587784,-250.137405
-1.858643,-0.293457,0.162598,82.129768,100.832062,-250.137405
-2.0,-0.125732,0.238525,62.938931,63.374046,-250.137405
-1.862793,-0.304443,-0.154297,21.748091,92.32061,-250.137405
-1.941162,-0.642822,-0.009521,-9.755725,83.312981,-250.137405
-1.570557,-0.687012,-0.171631,-33.328243,12.40458,-250.137405
-1.613281,-0.706055,-0.175049,0.206107,3.580153,-230.374039
-1.354492,-1.049316,0.121582,-12.221375,-14.061069,-185.488556
-1.070557,-0.990967,0.261719,-19.885496,-14.183207,-142.366409
-1.048096,-0.724609,0.062988,-19.175573,5.351145,-91.67939
-1.169678,-1.003906,0.119629,-34.129772,3.816794,-88.60305
-1.180908,-1.130859,0.167725,-40.412212,-13.587787,-69.007637
-1.011963,-1.121094,0.168701,-38.458015,-18.312977,-47.145039
-1.108643,-1.078857,0.245361,-21.175573,13.496183,2.396947
-1.356201,-1.036621,0.152344,-1.832061,30.832062,41.267174
-1.658691,-1.034668,0.019043,10.770992,26.839695,104.412216
-1.548096,-0.910645,0.077148,12.0,19.954199,155.053436
-1.626953,-0.785889,0.126953,14.755725,13.694656,169.618317
-1.512939,-0.673096,0.160156,-8.526717,9.427481,68.343513
-1.43457,-0.618408,0.034912,-40.694656,16.732824,-28.87023
-1.134277,-0.635742,-0.084473,-59.908398,40.053436,-77.824425
-0.979248,-0.683105,-0.12085,-63.786259,64.450378,-78.290077
-0.97168,-0.744141,-0.102295,-74.755722,61.610687,-101.702293
-0.848877,-0.692871,-0.185303,-75.229004,58.015266,-97.816795
-0.847168,-0.6604,-0.148926,-69.580154,55.267174,-97.740456
-0.722412,-0.566162,-0.184814,-65.39695,59.419846,-104.816795
-0.691162,-0.470459,-0.241943,-53.129772,63.870228,-102.251907
-0.71875,-0.476807,-0.253418,-43.290077,63.076336,-101.580154
-0.712646,-0.449707,-0.229004,-48.572517,62.183205,-83.740456
-0.729004,-0.453125,-0.212158,-47.0,52.916031,-58.625954
-0.702393,-0.447998,-0.149902,-45.190838,45.183205,-43.236641
-0.736816,-0.432373,-0.138672,-40.587788,38.725189,-22.335878
-0.729004,-0.418457,-0.101562,-35.893131,39.053436,-11.885496
-0.728271,-0.431885,-0.092773,-32.167938,37.068703,-8.389313
-0.72876,-0.435547,-0.090576,-28.70229,31.274809,-4.19084
-0.729492,-0.442627,-0.09668,-25.748091,26.106871,6.755725
-0.714844,-0.437256,-0.087158,-21.183207,22.885496,18.923664
-0.752686,-0.426758,-0.099609,-16.122137,22.152672,22.740458
-0.773193,-0.416504,-0.108887,-9.900764,24.29771,17.351145
-0.807373,-0.39917,-0.133789,-3.503817,31.847328,11.206107
-0.854004,-0.404785,-0.187012,-1.343511,39.244274,3.389313
-0.885986,-0.407715,-0.194336,-0.442748,42.67939,-2.51145
-0.884521,-0.408203,-0.202148,-1.21374,48.389313,-6.641222
-0.898438,-0.423096,-0.218506,-1.694656,52.9771,-14.480916
-0.85376,-0.422363,-0.209473,-2.541985,53.175571,-19.80916
-0.855713,-0.423584,-0.206055,-3.854962,52.061069,-18.160305
-0.884033,-0.441895,-0.19458,-7.633588,45.32061,-24.595419
-0.941895,-0.511475,-0.15918,-10.290076,34.35878,-38.923664
-0.890869,-0.460449,-0.204346,-8.19084,27.221375,-44.053436
-0.887207,-0.483643,-0.200195,-6.198473,20.473282,-36.007633
-0.897217,-0.496338,-0.219971,-5.221374,13.862596,-29.564886
-0.872559,-0.473633,-0.228271,-3.427481,8.526717,-14.022901
-0.850098,-0.462646,-0.213135,-1.114504,4.396946,2.007634
-0.8396,-0.439941,-0.212891,0.442748,3.122137,14.40458
-0.821289,-0.426758,-0.199463,0.969466,2.458015,20.450382
-0.807861,-0.435547,-0.203857,-0.320611,0.51145,22.916031
-0.803467,-0.452637,-0.191895,-1.206107,-0.435115,25.786259
-0.811523,-0.477295,-0.183105,-1.954198,-2.778626,30.083969
-0.787354,-0.48584,-0.168457,-2.022901,-3.152672,32.267174
-0.762207,-0.487061,-0.145264,-0.480916,-0.908397,30.961832
-0.752686,-0.488281,-0.130615,1.328244,2.709924,28.206106
-0.762939,-0.483887,-0.137451,2.908397,5.152672,22.259542
-0.756592,-0.487793,-0.132324,3.931298,7.671756,19.603054
-0.76416,-0.475098,-0.150879,4.312977,10.076336,15.770992
-0.789062,-0.485352,-0.156494,3.740458,10.923664,11.122137
-0.796143,-0.481445,-0.171143,3.251908,10.541985,9.351145
-0.808594,-0.487549,-0.171875,4.038168,10.068703,11.587787
-0.812988,-0.484619,-0.194092,4.091603,7.78626,11.862596
-0.794678,-0.487793,-0.176758,4.244275,4.145038,11.38168
-0.788086,-0.490234,-0.186523,5.267176,3.007634,10.603053
-0.799805,-0.483398,-0.174072,7.312977,1.0,10.358779
-0.852295,-0.490723,-0.182373,9.061069,-2.946565,5.687023
-0.862549,-0.48584,-0.177246,10.664123,-8.923664,4.549618
-0.868896,-0.481689,-0.182373,12.221375,-14.641221,11.38168
-0.877686,-0.48291,-0.169434,14.625955,-20.687023,19.900763
-0.845459,-0.458008,-0.178467,17.221375,-24.251909,32.35878
-0.841797,-0.463379,-0.177979,19.175573,-26.839695,49.442749
-0.860107,-0.485107,-0.201172,21.480917,-33.534351,83.030533
-0.867676,-0.455078,-0.183105,22.198473,-41.374046,98.96183
