AX,AY,AZ,GX,GY,GZ
-0.443359,0.833984,0.068848,7.854962,0.083969,-18.916031
-0.455811,0.830566,0.066895,8.038168,0.183206,-19.351145
-0.453369,0.826172,0.073486,7.748092,0.183206,-18.709923
-0.444824,0.810547,0.066406,8.015267,0.526718,-18.396946
-0.45166,0.806396,0.077393,8.152672,0.870229,-17.641222
-0.467285,0.811523,0.070557,8.251908,1.091603,-17.496183
-0.476562,0.804932,0.060791,8.59542,0.885496,-17.664122
-0.477539,0.811768,0.066162,8.59542,0.389313,-18.0
-0.475098,0.801758,0.067871,8.755725,0.068702,-18.801527
-0.484619,0.801514,0.05957,8.984733,-0.412214,-18.900763
-0.477295,0.808838,0.075439,9.572519,-0.229008,-19.12977
-0.478516,0.804932,0.061768,9.435115,0.259542,-19.251909
-0.487305,0.804199,0.071777,9.450381,0.061069,-19.564886
-0.493164,0.801025,0.052734,9.488549,-0.183206,-20.145039
-0.49707,0.792725,0.054443,10.274809,-0.030534,-21.603054
-0.487061,0.793457,0.051514,10.358779,0.610687,-22.87023
-0.492676,0.788086,0.050049,10.358779,1.862595,-23.526718
-0.498535,0.787354,0.047852,10.114504,2.534351,-24.389313
-0.509033,0.787354,0.043457,9.969465,2.503817,-24.687023
-0.519775,0.765869,0.053467,9.824428,2.748092,-25.236641
-0.533447,0.756592,0.047607,10.465649,2.816794,-26.167938
-0.539795,0.762207,0.031494,10.427481,2.068702,-26.755726
-0.538818,0.763916,0.03833,10.358779,2.015267,-27.51145
-0.54541,0.750488,0.037598,10.534351,2.679389,-28.38168
-0.536865,0.749512,0.043945,11.19084,2.977099,-28.832062
-0.547607,0.746582,0.034912,11.541985,3.435115,-29.022902
-0.557861,0.744873,0.041016,11.152672,3.694656,-29.076336
-0.559326,0.73999,0.027344,10.328244,3.10687,-28.412214
-0.574463,0.734863,0.023193,9.755725,2.427481,-27.923664
-0.575439,0.720215,0.037842,9.717557,2.022901,-27.961832
-0.571777,0.713867,0.025879,9.946565,1.458015,-27.87023
-0.570312,0.718262,0.031494,10.061069,0.694656,-27.877863
-0.558105,0.719482,0.028076,9.763359,1.061069,-27.80916
-0.556152,0.723633,0.039551,10.114504,1.366412,-27.595419
-0.553711,0.719971,0.036865,10.465649,2.282443,-27.961832
-0.5625,0.738281,0.032959,10.251908,2.900763,-28.305344
-0.556885,0.741943,0.035889,9.458015,2.755725,-28.290077
-0.559814,0.732178,0.039062,9.419847,3.587786,-29.419847
-0.5625,0.730713,0.039795,9.061069,3.969466,-30.274809
-0.557129,0.717041,0.034912,8.702291,4.656488,-30.519083
-0.57373,0.718506,0.028076,8.358779,5.435114,-30.404581
-0.571533,0.714111,0.025879,8.068703,5.564886,-30.366413
-0.574951,0.719482,0.027832,7.961832,5.671756,-30.274809
-0.568115,0.716553,0.029053,7.709924,5.755725,-30.755726
-0.586182,0.722168,0.02832,7.221374,7.038168,-31.763359
-0.598633,0.715576,0.018555,6.900764,7.480916,-32.61832
-0.593506,0.713379,0.033936,6.366412,7.053435,-32.908398
-0.599609,0.695312,0.017822,6.534351,7.48855,-33.427483
-0.613525,0.685059,0.025879,6.717557,8.236641,-34.496181
-0.615967,0.688232,0.027832,7.007634,7.61832,-34.9771
-0.623291,0.687012,0.030273,7.19084,7.396946,-35.847328
-0.62915,0.671387,0.029053,7.267176,7.48855,-36.801525
-0.621582,0.660645,0.018311,7.908397,7.458015,-37.870228
-0.626953,0.656006,0.009277,8.664123,7.755725,-39.908398
-0.608154,0.65625,0.00293,9.152672,7.969466,-41.374046
-0.614746,0.64917,0.011475,9.717557,9.015267,-43.480915
-0.613525,0.641846,0.012451,10.068703,10.419847,-45.129772
-0.613281,0.634521,-0.005615,10.366412,11.221375,-46.015266
-0.619141,0.629883,-0.005371,10.541985,11.61832,-46.847328
-0.625,0.62085,-0.006348,10.083969,11.938931,-47.503819
-0.624512,0.5979,-0.001221,9.832061,12.564885,-47.923664
-0.616455,0.58374,0.001953,9.687023,13.076336,-48.305344
-0.625977,0.568359,0.002441,10.091603,12.633588,-47.770992
-0.630371,0.560059,0.006348,10.755725,12.748092,-47.931297
-0.638184,0.557617,0.001709,11.152672,12.664123,-47.687023
-0.650146,0.548096,-0.000977,11.206107,13.122137,-47.068703
-0.650879,0.543945,0.012451,10.946565,11.053435,-46.198475
-0.644775,0.523438,0.001953,10.549619,9.274809,-45.35878
-0.650635,0.509277,0.007324,11.442748,7.870229,-45.213741
-0.645264,0.51123,0.01001,12.045801,6.748092,-44.519085
-0.638672,0.509033,0.01416,11.839695,4.717557,-43.519085
-0.644043,0.489746,0.012451,12.465649,3.618321,-43.885498
-0.628662,0.470703,0.009766,13.557252,2.099237,-44.603054
-0.614502,0.44873,0.016113,15.503817,1.725191,-45.9771
-0.605957,0.445068,0.014893,18.793894,2.78626,-47.969467
-0.600342,0.462158,0.026611,20.519083,4.030534,-48.839695
-0.602295,0.471924,0.026367,22.48855,4.961832,-50.778625
-0.595459,0.462402,0.017578,24.152672,5.938931,-53.389313
-0.568115,0.442139,0.019287,26.244274,8.534351,-56.717556
-0.596191,0.460938,-0.004395,25.648855,9.061069,-56.893131
-0.565918,0.429199,0.009033,24.87023,10.664123,-57.969467
-0.574951,0.446289,-0.002441,24.244274,13.656488,-59.786259
-0.55957,0.403809,-0.010986,23.671755,15.511451,-58.580154
-0.545898,0.381836,-0.026611,26.213741,16.328245,-60.664124
-0.556641,0.386719,-0.036621,25.526718,17.175573,-60.427483
-0.552002,0.393555,-0.02417,25.007633,18.572519,-60.068703
-0.546387,0.371094,-0.044434,25.29771,20.145039,-62.885498
-0.528564,0.334229,-0.037842,26.87023,20.923664,-67.427483
-0.544922,0.357422,-0.061523,28.51145,22.717558,-73.450378
-0.54834,0.374756,-0.073486,27.70229,27.206106,-80.900764
-0.556152,0.37085,-0.075195,27.48855,29.274809,-90.793892
-0.546387,0.3396,-0.077881,26.503817,30.496183,-98.816795
-0.49707,0.302734,-0.070557,25.572519,30.534351,-107.473282
-0.466797,0.272217,-0.06665,24.198473,29.183207,-112.687019
-0.432617,0.226807,-0.073486,24.38168,28.824427,-115.656487
-0.403809,0.20874,-0.078125,23.29771,29.083969,-118.519081
-0.405518,0.202393,-0.092285,22.503817,31.595419,-121.076332
-0.360352,0.160889,-0.071045,23.786259,33.137405,-122.404579
-0.349609,0.100586,-0.077881,26.893129,33.38168,-122.534348
-0.367676,0.027344,-0.09668,28.465649,32.946564,-124.419846
-0.387695,-0.051758,-0.075439,31.458015,33.633587,-130.229004
-0.361572,-0.10498,-0.063232,35.519085,35.244274,-135.213745
-0.383301,-0.184814,-0.104492,37.206108,33.770992,-141.450378
-0.347656,-0.241699,-0.118164,40.198475,34.839695,-148.175568
-0.303955,-0.303223,-0.108887,42.717556,39.832062,-150.541992
-0.351318,-0.334961,-0.131348,42.65649,42.251907,-145.137405
-0.442139,-0.392822,-0.156738,40.435116,38.282444,-135.603058
-0.526611,-0.512695,-0.149902,40.740459,31.282442,-126.709923
-0.60376,-0.565186,-0.106689,44.946564,27.221375,-121.908394
-0.72998,-0.583008,-0.102783,49.9771,21.755726,-120.908394
-0.881104,-0.463379,-0.128418,59.587788,16.351145,-125.022903
-1.058594,-0.279053,-0.157959,69.748093,6.48855,-126.236641
-1.342285,-0.072998,-0.403076,88.725189,23.854961,-144.534348
-1.699707,0.490967,-0.951904,99.503815,81.908394,-166.92366
-0.770264,1.50415,-1.927246,-32.335876,163.007629,-127.435112
-1.36792,-2.0,-2.0,-62.648853,88.229004,-70.0
-2.0,-2.0,-2.0,-4.908397,-53.839695,-13.068703
-1.932129,-2.0,-2.0,-96.305344,-250.137405,-14.366412
-1.311279,-1.177246,-0.208252,94.351143,-125.908394,-121.64122
-2.0,0.264893,0.161865,47.412212,22.587786,-153.694656
-2.0,-0.384033,0.409668,10.160305,-25.564886,-108.167938
-2.0,-0.686768,0.252441,24.244274,-3.534351,-250.137405
-1.661133,-0.0354,0.914551,-8.473283,110.030533,-250.137405
0.044189,-1.051514,0.593262,-49.267174,208.64122,-250.137405
1.011963,-2.0,-0.215088,-12.625955,232.381683,-250.137405
-0.192871,-2.0,-1.902588,38.809162,250.129776,-170.427475
-2.0,-0.259766,-1.264404,-49.190838,-69.709923,51.251907
-0.405518,-2.0,-1.047119,-48.244274,-149.64122,35.70229
0.377197,-0.787598,0.170166,-8.236641,-73.312981,-20.404581
-0.273438,-0.615967,-0.276855,-8.969465,-37.954197,43.404579
-0.333008,-0.837402,-0.276123,-1.206107,-43.137405,74.748093
-0.337402,-0.697754,-0.248291,9.824428,-33.938931,61.038166
-0.220459,-0.415283,-0.116699,7.816794,-25.305344,58.404579
-0.209717,-0.495117,-0.167236,3.435115,-23.732824,72.908394
-0.394287,-0.592041,-0.233398,8.816793,-30.717558,79.351143
-0.613037,-0.54126,-0.270508,18.045801,-25.671755,63.251907
-0.685303,-0.427979,-0.188721,22.557251,-11.503817,42.61832
-0.749512,-0.363525,-0.138184,26.045801,-4.748092,34.496181
-0.773682,-0.340088,-0.119385,26.458015,-0.389313,31.931297
-0.840332,-0.365479,-0.170654,27.87023,7.030534,23.114504
-0.898438,-0.325195,-0.174561,27.67939,12.083969,8.015267
-0.939697,-0.302002,-0.205566,25.137405,15.549619,-4.183206
-0.951904,-0.310303,-0.213623,22.29771,15.709924,-10.816793
-0.919678,-0.34375,-0.213379,19.374046,14.648855,-13.328244
-0.914795,-0.371826,-0.221191,15.152672,12.824428,-10.145039
-0.914062,-0.421387,-0.236816,11.78626,8.076336,-8.19084
-0.873291,-0.476807,-0.212158,10.389313,4.38168,-3.916031
-0.848389,-0.519531,-0.22583,9.793893,4.770992,1.328244
-0.831543,-0.564941,-0.237305,10.38168,5.832061,6.114504
-0.820557,-0.572021,-0.236084,11.801527,5.450382,11.259542
-0.822266,-0.582764,-0.211426,13.603053,8.198473,15.664123
-0.797119,-0.583008,-0.184082,16.732824,12.167939,15.122137
-0.819824,-0.554199,-0.163086,19.557251,15.244275,16.465649
-0.831787,-0.546143,-0.138672,23.748091,15.122137,18.0
-0.807373,-0.553467,-0.114014,27.984734,12.702291,17.595419
-0.800049,-0.551758,-0.119385,31.396946,11.396947,15.549619
-0.790283,-0.544189,-0.121582,34.748093,9.931297,14.358779
-0.76123,-0.558105,-0.149902,38.0229,12.839695,11.847328
-0.763916,-0.502197,-0.167969,38.122139,15.977099,9.923664
-0.753174,-0.470947,-0.185059,35.045803,16.977098,8.969465
-0.812988,-0.462402,-0.221436,32.038166,12.0,10.908397
-0.895996,-0.492676,-0.359619,33.458015,-4.977099,19.0
-0.709961,-0.422607,-0.228027,23.290077,-15.587787,12.572519
-0.716797,-0.512939,-0.335205,17.458015,-9.007633,5.51145
-0.741943,-0.491699,-0.301758,14.862596,-1.21374,1.045802
-0.743408,-0.50708,-0.27832,7.664122,2.015267,0.954198
-0.731689,-0.601807,-0.340332,-0.755725,3.580153,1.167939
-0.72998,-0.633301,-0.282715,-8.305344,11.358779,2.870229
-0.748291,-0.703369,-0.280518,-13.954199,20.801527,4.145038
-0.811035,-0.718506,-0.261475,-17.786259,25.221375,8.748092
-0.880127,-0.724121,-0.265869,-17.839695,20.450382,18.564886
-0.942383,-0.731934,-0.31665,-14.648855,13.480916,19.38168
-0.889893,-0.695557,-0.29248,-12.114504,12.442748,17.007633
-0.862305,-0.650879,-0.297607,-8.793893,11.236641,16.290077
-0.8396,-0.603271,-0.296631,-6.572519,9.21374,19.786259
-0.830078,-0.517822,-0.268555,-5.717557,5.984733,17.328245
