AX,AY,AZ,GX,GY,GZ
0.049316,0.802734,-0.482422,16.396946,0.648855,3.717557
0.049805,0.796875,-0.474365,17.832062,0.526718,4.351145
0.052002,0.78418,-0.485107,19.389313,0.412214,4.633588
0.048828,0.787842,-0.474121,20.183207,-0.076336,4.419847
0.048828,0.778076,-0.491699,22.755726,-0.519084,5.198473
0.061768,0.7771,-0.482666,23.786259,-0.59542,5.274809
0.062012,0.780518,-0.496826,24.671755,-0.267176,5.290076
0.062988,0.786865,-0.503418,24.068703,0.244275,5.274809
0.060303,0.774658,-0.504639,21.580153,1.007634,5.587786
0.061768,0.767822,-0.512451,24.229008,1.122137,5.519084
0.05249,0.765625,-0.509277,23.80916,-0.038168,4.78626
0.061768,0.765137,-0.49585,24.282442,-0.099237,4.061069
0.0625,0.763184,-0.499756,26.70229,-0.305344,4.167939
0.054932,0.751709,-0.503662,28.015266,-0.78626,4.412214
0.051758,0.744141,-0.514893,30.0,-1.374046,4.954198
0.050537,0.747314,-0.515869,31.534351,-1.282443,5.21374
0.052979,0.741455,-0.509033,33.175571,-0.587786,6.045802
0.060303,0.733398,-0.527344,32.687023,0.10687,6.160306
0.058594,0.73584,-0.529785,32.282444,0.641221,6.129771
0.052734,0.733887,-0.531494,33.549618,0.862595,6.160306
0.061035,0.727295,-0.529053,34.770992,1.206107,6.320611
0.055176,0.712891,-0.547363,35.923664,1.114504,7.114504
0.057617,0.711182,-0.547607,37.335876,0.687023,6.274809
0.065186,0.704102,-0.55127,37.9771,1.21374,6.557252
0.064209,0.704346,-0.570801,37.496181,1.236641,6.450382
0.062988,0.699951,-0.573486,37.190838,0.709924,6.91603
0.057861,0.712158,-0.587402,36.778625,0.282443,7.21374
0.063477,0.683105,-0.585205,38.0,-0.007634,7.152672
0.055176,0.674316,-0.587158,37.946564,-0.610687,7.656488
0.060303,0.676514,-0.582275,36.137405,-1.076336,7.007634
0.059082,0.684082,-0.585449,36.091602,-1.137405,7.030534
0.056885,0.670166,-0.588623,36.664124,-0.900763,7.320611
0.052002,0.654053,-0.596924,36.419846,-0.854962,7.427481
0.031006,0.656738,-0.654785,36.480915,-1.366412,8.633588
0.044434,0.663574,-0.584717,38.832062,-0.564885,11.160305
0.042969,0.626221,-0.654541,40.145039,-1.083969,10.465649
0.062744,0.632324,-0.605225,42.732826,-0.503817,10.083969
0.05835,0.630127,-0.623291,40.557251,-0.412214,10.068703
0.050293,0.614014,-0.628418,45.732826,-0.496183,12.977099
0.052002,0.587646,-0.639893,44.740459,-0.625954,13.160305
0.061035,0.593506,-0.666748,53.786259,-0.671756,16.671755
0.079346,0.61084,-0.679688,53.015266,-1.80916,17.12977
0.059082,0.555664,-0.691162,50.954197,-3.114504,15.824428
0.081787,0.570801,-0.703613,48.961834,-4.709924,15.931297
0.075928,0.568848,-0.711426,47.099236,-5.175572,15.923664
0.085693,0.576904,-0.733398,47.152672,-5.076336,15.473283
0.088135,0.568359,-0.714844,46.458015,-5.526718,12.816793
0.094727,0.569824,-0.713379,46.549618,-5.351145,11.282443
0.094727,0.54248,-0.735107,45.587788,-5.21374,9.870229
0.095703,0.521729,-0.75415,43.923664,-4.839694,8.267176
0.08667,0.517578,-0.764893,42.534351,-4.015267,8.061069
0.076172,0.48584,-0.748535,38.396946,-2.793893,5.992366
0.077881,0.497803,-0.767578,36.152672,-1.80916,4.793893
0.068848,0.490479,-0.773193,35.145039,-2.312977,4.206107
0.066162,0.476562,-0.757568,29.900763,-2.366412,1.885496
0.060059,0.487549,-0.756836,28.824427,-2.908397,2.030534
0.063477,0.472412,-0.762451,27.877863,-4.70229,1.427481
0.065186,0.474609,-0.74585,28.213741,-5.19084,0.320611
0.063965,0.4729,-0.733887,29.709923,-4.152672,0.053435
0.061279,0.475342,-0.72168,30.900763,-2.267176,-0.450382
0.063232,0.4729,-0.711914,31.0,-0.458015,-1.251908
0.062744,0.46167,-0.722412,31.091602,1.198473,-2.282443
0.064453,0.453369,-0.717773,32.068703,1.954198,-3.366412
0.062988,0.447998,-0.723877,34.267174,3.725191,-2.419847
0.059326,0.45459,-0.719238,38.274811,4.114504,-4.465649
0.062012,0.453125,-0.705811,41.122139,3.885496,-3.59542
0.061768,0.478516,-0.671631,44.129772,4.366412,-3.343511
0.055664,0.457275,-0.673096,44.274811,4.89313,-4.709924
0.051514,0.436279,-0.658691,40.610687,5.320611,-6.419847
0.048828,0.428955,-0.695068,36.893131,5.992366,-5.687023
0.053223,0.417969,-0.701172,36.198475,4.839694,-6.847328
0.059326,0.414795,-0.668701,34.923664,4.70229,-7.48855
0.062988,0.429199,-0.679199,34.603054,5.091603,-7.954198
0.052246,0.410156,-0.665039,34.435116,5.679389,-9.366412
0.051514,0.408447,-0.663086,38.511452,6.839694,-9.320611
0.032715,0.388428,-0.677734,43.442749,6.931298,-6.992366
0.033691,0.378662,-0.678223,48.496181,5.992366,-4.725191
0.037842,0.373047,-0.666504,53.916031,6.374046,-1.824427
0.051025,0.379639,-0.658203,57.717556,7.21374,1.007634
0.072021,0.380859,-0.641357,61.259541,8.480916,3.0
0.082275,0.384277,-0.6604,57.488548,11.0,4.351145
0.070557,0.40918,-0.63623,57.152672,12.152672,5.343512
0.063232,0.429932,-0.644043,53.488548,12.679389,4.29771
0.058105,0.424805,-0.6521,51.9771,12.580153,3.427481
0.056396,0.457275,-0.671875,49.480915,11.259542,1.938931
0.049316,0.436279,-0.65625,48.099236,10.534351,1.671756
0.044678,0.430664,-0.656494,50.64122,9.580153,2.099237
0.053223,0.42334,-0.658691,54.335876,7.541985,2.381679
0.039062,0.411133,-0.648682,56.458015,5.641222,2.70229
0.039795,0.388184,-0.62793,60.221375,3.763359,3.59542
0.0354,0.359131,-0.58667,69.465652,2.007634,7.526718
0.029541,0.339844,-0.585449,74.312981,-0.244275,7.305344
0.048584,0.346191,-0.570068,83.022903,-1.419847,9.923664
0.056885,0.345215,-0.560059,93.229004,-1.526718,12.717557
0.058105,0.339355,-0.542725,94.28244,0.312977,11.358779
0.055908,0.299316,-0.549316,97.572517,2.916031,11.435115
0.059814,0.286621,-0.553467,101.35878,6.045802,9.961832
0.088135,0.286621,-0.550537,104.305344,8.564885,8.610687
0.097656,0.260986,-0.513672,106.488548,10.610687,7.129771
0.116455,0.219971,-0.48999,111.732826,12.267176,6.580153
0.113281,0.194336,-0.446289,110.786263,13.549619,5.931298
0.127441,0.159912,-0.398193,107.251907,16.0,6.70229
0.128418,0.113525,-0.336182,108.053436,18.862595,4.366412
0.142578,0.078369,-0.323486,101.572517,23.251909,-1.916031
0.161377,0.021484,-0.324707,90.648857,26.832062,-9.442748
0.155762,-0.06543,-0.342285,84.587784,31.12977,-13.854961
0.141357,-0.150391,-0.351318,82.954201,34.541985,-14.748092
0.140381,-0.219727,-0.356445,82.39695,36.64122,-14.175572
0.127197,-0.259033,-0.321289,75.435112,36.465649,-17.770992
0.0979,-0.308838,-0.389404,70.297707,30.51145,-22.473282
0.058838,-0.381592,-0.35791,77.740456,19.282442,-26.236641
0.039795,-0.4021,-0.337402,100.534348,14.061069,-23.251909
0.005371,-0.508301,-0.463379,108.145035,9.961832,-16.0
-0.02002,-0.519287,-0.569336,97.511452,7.763359,-2.847328
-0.03125,-0.468262,-0.660156,72.732826,9.534351,8.458015
-0.047119,-0.373779,-0.816406,29.38168,3.70229,10.839695
-0.086182,-0.321045,-0.94458,3.564885,-12.526717,12.778625
-0.063965,-0.237305,-1.077148,6.801527,-29.572519,16.87023
0.009277,-0.216553,-1.227051,46.740459,-40.267174,28.351145
0.127441,-0.330566,-1.354492,112.198471,-40.213741,44.587788
0.721924,-0.930176,-1.462158,221.145035,-3.763359,115.32061
1.166016,-2.0,-0.871338,250.129776,101.618324,250.129776
0.130859,-2.0,-1.918701,250.129776,144.824432,250.129776
1.999939,0.787598,-2.0,250.129776,250.129776,-161.28244
-0.547119,-2.0,-2.0,-250.137405,178.534348,-28.061069
-0.230225,-2.0,-2.0,-250.137405,-33.106869,-250.137405
-0.119629,-0.318115,-2.0,-250.137405,38.129772,-140.213745
0.515869,1.355469,-2.0,-60.916031,-8.366412,-34.167938
0.047607,-0.202393,-2.0,-213.061066,-106.725189,-75.854965
-0.206543,-1.781006,0.090088,-206.748093,-82.106873,-97.587784
-0.614746,-2.0,1.999939,-106.954201,-27.564886,-99.740456
-0.756104,-2.0,1.999939,39.786259,49.122139,-32.473282
-0.57251,-2.0,0.927734,117.045799,99.053436,51.633587
-0.257812,-1.766602,-0.075439,99.152672,101.96183,92.206108
0.120361,-0.772461,-1.232178,67.557251,75.458015,113.900764
0.462158,-0.03833,-1.719482,68.213737,25.015266,108.977097
0.666748,0.300537,-1.564209,66.648857,-19.091602,102.847328
0.813721,0.422607,-1.39209,59.709923,-43.366413,87.862595
0.891113,0.427734,-1.172363,32.709923,-66.694656,50.854961
0.88501,0.484375,-1.310791,17.61832,-42.923664,47.526718
0.785645,0.331543,-0.998047,67.419846,-36.480915,62.671757
0.829346,0.356201,-0.428223,22.450382,-37.709923,52.083969
0.753906,0.431885,-0.29126,-33.778625,-3.419847,16.038168
0.575195,0.208252,-0.542236,-62.091602,9.603053,-4.51145
0.433105,0.12915,-0.710693,-31.732824,11.099236,-7.419847
0.311768,0.024658,-0.734863,-22.625954,5.29771,-15.427481
0.220947,-0.028076,-0.768311,-10.572519,-7.374046,-26.19084
0.186523,0.009521,-0.772217,13.755725,-11.923664,-30.312977
0.215088,0.023682,-0.814453,52.083969,-8.419847,-33.404579
0.13916,-0.112061,-0.585938,86.564888,-7.160306,-31.80916
-0.029785,-0.395996,-0.433105,44.793892,-8.893129,-43.145039
0.003418,-0.354492,-0.623779,27.977098,13.21374,-40.625954
0.054443,-0.307617,-0.831055,53.595421,33.755726,-26.061069
-0.010498,-0.561523,-0.950195,18.19084,26.610687,-28.526718
-0.029297,-0.551758,-1.106445,-2.763359,24.839695,-33.992367
-0.007568,-0.45166,-1.192383,2.480916,20.595419,-24.312977
-0.010254,-0.450439,-1.222656,3.305344,11.473283,-15.648855
-0.034912,-0.463135,-1.276855,19.931297,0.793893,-3.931298
-0.049072,-0.500244,-1.174072,34.427483,-8.885496,14.045801
-0.064209,-0.561523,-1.037842,32.374046,-11.305344,29.908398
-0.018311,-0.612793,-0.867676,5.343512,-24.786259,28.786259
0.255127,-0.307617,-0.895996,-19.763359,-49.603054,1.954198
0.331543,-0.105469,-0.771484,17.473282,-45.900764,4.748092
0.204834,-0.392822,-0.642822,34.099236,-26.221375,21.893129
0.174561,-0.455566,-0.63623,36.954197,-13.465649,21.496183
0.176514,-0.382812,-0.692139,27.267176,-4.08397,24.229008
0.170898,-0.422852,-0.847412,25.083969,-0.442748,19.854961
0.19751,-0.432617,-1.010498,36.412212,-1.129771,16.893129
0.215332,-0.45166,-1.039551,37.65649,-4.091603,13.870229
0.233398,-0.460938,-1.032715,30.572519,-3.770992,8.19084
0.238525,-0.470947,-1.009766,11.656488,-3.916031,-1.10687
0.230713,-0.475586,-0.989258,-5.152672,-2.633588,-9.045801
0.218994,-0.495605,-0.970947,-14.229008,-0.351145,-12.312977
0.194092,-0.521484,-0.947266,-21.740458,4.221374,-13.549619
0.179932,-0.525391,-0.979004,-26.358778,8.083969,-13.893129
0.170654,-0.534424,-0.990723,-27.152672,9.862596,-10.671756
0.160156,-0.529297,-1.00708,-22.419847,10.022901,-6.351145
0.151367,-0.544189,-1.004883,-17.175573,9.374045,-1.167939
0.153076,-0.520752,-1.088379,-16.916031,3.083969,1.312977
