AX,AY,AZ,GX,GY,GZ
-0.427734,0.852295,0.109375,3.022901,2.519084,-15.442748
-0.43042,0.8479,0.111084,2.366412,1.816794,-14.793893
-0.423096,0.828857,0.118896,2.412214,2.519084,-14.954199
-0.426514,0.827148,0.12085,3.099237,3.129771,-15.297709
-0.429199,0.831543,0.125732,3.793893,2.259542,-14.450381
-0.424561,0.827393,0.127197,4.717557,1.541985,-14.580153
-0.432373,0.848145,0.119629,6.183206,1.183206,-15.519084
-0.434814,0.858643,0.136963,6.389313,-2.061069,-16.648855
-0.43457,0.871094,0.110596,7.335878,0.664122,-19.221375
-0.43335,0.875244,0.125,7.259542,1.282443,-20.793894
-0.42749,0.865479,0.116943,7.351145,2.610687,-23.236641
-0.432373,0.847656,0.12793,7.473282,2.89313,-25.167938
-0.43042,0.824951,0.127686,8.068703,2.312977,-26.450382
-0.44458,0.799072,0.128418,8.709924,3.396947,-28.061069
-0.432861,0.790771,0.12915,8.961832,2.122137,-26.961832
-0.450928,0.795166,0.129639,9.694656,2.282443,-27.389313
-0.466309,0.788086,0.103027,9.396947,0.259542,-26.671755
-0.488281,0.78125,0.110596,9.679389,-1.923664,-25.564886
-0.474854,0.789795,0.120117,9.816793,-3.427481,-26.145039
-0.488281,0.796143,0.103516,9.824428,-3.21374,-27.641222
-0.487061,0.812256,0.111816,9.854961,-2.854962,-29.70229
-0.486084,0.816162,0.10791,9.587787,-1.793893,-30.824427
-0.498535,0.778076,0.098633,9.656488,-0.030534,-32.419846
-0.520996,0.764893,0.094727,9.38168,0.603053,-31.816793
-0.539062,0.749512,0.085938,9.221375,-0.916031,-29.587786
-0.544189,0.729004,0.076172,8.847328,-2.740458,-27.51145
-0.55127,0.709961,0.075928,8.687023,-5.580153,-25.603054
-0.556396,0.718262,0.083252,8.763359,-6.89313,-22.908398
-0.5625,0.725098,0.086426,7.938931,-8.145039,-21.916031
-0.557129,0.734131,0.080811,7.229008,-6.793893,-21.61832
-0.541504,0.741943,0.0896,7.396946,-4.358778,-22.839695
-0.559082,0.749268,0.080811,7.305344,-2.068702,-23.091602
-0.562744,0.736572,0.074219,6.473282,0.145038,-23.908398
-0.571289,0.732178,0.074707,7.458015,2.473282,-25.832062
-0.601318,0.721924,0.082031,7.641222,3.671756,-27.572519
-0.607178,0.696289,0.088135,7.725191,2.832061,-28.419847
-0.606689,0.695801,0.104736,8.633588,1.763359,-28.160305
-0.613281,0.674805,0.105957,9.80916,0.664122,-27.80916
-0.583984,0.688477,0.118408,10.549619,0.137405,-26.656488
-0.57959,0.714355,0.114502,11.557252,-0.458015,-26.022902
-0.583252,0.750244,0.101318,10.931297,-0.916031,-25.580153
-0.555176,0.75415,0.081055,10.442748,0.526718,-26.526718
-0.560059,0.762939,0.083984,10.748092,2.419847,-28.015266
-0.569336,0.749023,0.077637,10.59542,3.717557,-30.015266
-0.571289,0.740234,0.089355,10.763359,4.473282,-31.458015
-0.612549,0.722656,0.093506,11.022901,1.480916,-30.725191
-0.606934,0.713135,0.095459,10.877863,2.328244,-31.725191
-0.611084,0.703857,0.081055,11.343512,1.419847,-32.664124
-0.616699,0.713135,0.097412,11.511451,1.045802,-33.595421
-0.611084,0.700439,0.090332,11.488549,0.709924,-34.61832
-0.590576,0.69043,0.091064,12.061069,0.916031,-35.251907
-0.592529,0.696289,0.075928,12.412213,1.282443,-35.664124
-0.599609,0.697998,0.090576,12.320611,2.328244,-36.725189
-0.592041,0.686523,0.076904,12.244275,2.59542,-37.862595
-0.580811,0.673828,0.079834,12.19084,2.343511,-38.061069
-0.593262,0.667725,0.072021,11.862596,3.21374,-38.167938
-0.590576,0.648926,0.074951,11.427481,4.458015,-38.885498
-0.600586,0.647217,0.069824,11.358779,5.10687,-39.900764
-0.601074,0.646729,0.071777,11.038168,6.290076,-41.763359
-0.62915,0.648682,0.057617,11.282443,5.885496,-42.419846
-0.653076,0.607666,0.034912,10.488549,7.40458,-44.282444
-0.679443,0.606201,0.018066,10.458015,7.633588,-46.0
-0.663574,0.5896,0.018066,10.015267,8.946565,-47.664124
-0.682617,0.585938,0.02124,9.488549,9.198473,-47.167938
-0.718018,0.572998,0.024902,8.854961,7.580153,-46.351147
-0.724365,0.551514,0.031006,8.549619,5.122138,-46.725189
-0.73999,0.53418,0.026611,8.78626,4.030534,-46.687023
-0.75415,0.510254,0.025391,9.839695,3.358779,-47.213741
-0.745361,0.506348,0.021484,10.38168,2.519084,-47.312977
-0.743408,0.494385,0.019043,10.458015,3.641221,-47.29771
-0.72876,0.501221,0.027344,10.442748,5.167939,-47.496181
-0.730713,0.512207,0.034668,9.076336,5.557252,-46.106869
-0.716309,0.50293,0.027588,7.78626,4.70229,-44.068703
-0.719482,0.503174,0.036133,6.725191,3.076336,-42.67939
-0.706787,0.487793,0.046387,6.015267,1.89313,-41.114502
-0.693115,0.480957,0.035889,5.51145,0.59542,-39.969467
-0.694336,0.479004,0.035889,5.38168,-0.465649,-39.137405
-0.682861,0.490723,0.037598,4.687023,-0.458015,-38.305344
-0.680176,0.496094,0.034668,4.59542,-0.862595,-38.694656
-0.668457,0.521729,0.032959,4.725191,-1.022901,-40.236641
-0.643066,0.523926,0.029297,3.969466,-1.183206,-41.175571
-0.616211,0.525146,0.043457,3.938931,0.0,-43.053436
-0.61792,0.541748,0.057617,4.29771,-0.496183,-44.580154
-0.591309,0.552979,0.065918,5.267176,-1.083969,-45.709923
-0.58374,0.539062,0.079102,5.992366,-0.793893,-47.587788
-0.583252,0.539551,0.067627,7.320611,-0.778626,-49.305344
-0.562256,0.535645,0.063721,7.778626,-0.534351,-51.694656
-0.547852,0.547119,0.062744,7.946565,0.0,-53.824429
-0.536377,0.542725,0.083984,7.961832,1.259542,-55.801525
-0.539795,0.540039,0.069824,7.946565,2.236641,-58.35878
-0.538818,0.5271,0.084717,7.015267,2.48855,-61.374046
-0.521729,0.51709,0.082764,6.19084,3.068702,-64.908394
-0.505127,0.481689,0.068604,5.80916,4.725191,-69.099236
-0.496094,0.460205,0.057129,5.877862,7.091603,-73.770996
-0.467529,0.453613,0.051514,5.641222,11.305344,-79.35878
-0.48291,0.416504,0.038086,5.458015,12.969465,-82.236641
-0.453613,0.374023,0.047363,5.366412,16.183207,-84.236641
-0.468018,0.322998,0.060303,6.206107,17.847328,-87.458015
-0.478027,0.288818,0.057373,7.40458,20.603054,-91.748093
-0.464355,0.275146,0.064453,6.78626,20.580153,-96.122139
-0.484863,0.228027,0.037598,8.641221,22.328245,-106.709923
-0.451904,0.216553,0.018066,8.709924,23.610687,-114.183205
-0.415039,0.16626,0.00293,9.671756,25.312977,-118.183205
-0.405762,0.123535,0.006348,10.641221,27.106871,-119.412216
-0.408447,0.107178,0.001953,10.900764,27.770992,-117.633591
-0.412354,0.065674,-0.011719,11.923664,27.587786,-117.404579
-0.405273,0.009277,0.006104,13.717557,29.801527,-118.748093
-0.427734,-0.053467,0.003662,13.801527,31.572519,-120.328247
-0.443115,-0.12793,-0.0271,12.992367,32.770992,-122.67939
-0.436279,-0.196533,-0.043213,14.244275,33.778625,-125.877861
-0.443848,-0.229004,-0.048828,15.198473,34.290077,-128.28244
-0.443115,-0.279297,-0.078125,16.969465,38.152672,-133.488556
-0.467285,-0.329834,-0.12207,21.832062,40.198475,-138.236649
-0.509521,-0.425049,-0.171143,26.87023,51.61832,-139.549622
-0.5354,-0.516846,-0.143066,30.854961,57.519085,-142.007629
-0.675049,-0.564941,-0.151611,37.221375,68.809158,-149.442749
-0.809326,-0.610352,-0.149414,41.610687,67.870232,-149.083969
-0.903564,-0.67749,-0.146484,53.244274,68.412216,-148.862595
-0.991943,-0.554688,-0.130859,63.122139,61.832062,-146.328247
-1.090576,-0.376221,-0.200195,71.938934,61.694656,-149.396942
-1.197998,-0.134277,-0.293701,72.877861,65.526718,-150.335876
-1.397461,-0.087646,-0.468262,69.885498,63.946564,-145.595413
-1.512939,0.040527,-0.999023,70.564888,103.106873,-164.656494
-1.255859,-0.144287,-1.576172,27.465649,129.412216,-153.274811
-2.0,-2.0,-2.0,74.778625,-79.786263,-111.824425
-2.0,0.19873,-0.779541,26.251909,-164.251907,-63.709923
-1.4104,-1.950195,0.562012,-43.473282,-222.7939,-45.580154
-2.0,-0.692383,0.488525,-27.259542,-151.549622,-66.923668
-2.0,-0.728271,0.415771,-75.519081,-120.076332,-51.374046
-1.811279,-1.556396,0.429443,-38.473282,-7.076336,-137.427475
-1.371094,-1.291504,0.591553,-5.526718,78.824425,-189.778625
-0.919678,-1.607178,0.387695,27.099237,189.412216,-250.137405
-0.630371,-2.0,-0.247559,71.549622,250.129776,-250.137405
-0.766357,-1.950439,-0.978516,73.687019,250.129776,-250.137405
-1.723145,-0.298584,-0.84668,-49.549618,75.992363,-10.80916
-1.177979,-1.682861,-1.01416,-72.404579,-89.015266,110.007637
-0.477539,-0.908203,-0.10376,-44.648853,-77.129768,95.290077
-0.815918,-0.968018,-0.434082,-45.183205,-68.427483,113.946564
-0.915527,-1.094238,-0.522461,-38.564884,-84.732826,101.32061
-0.707275,-0.656494,-0.19751,-32.511452,-92.580154,77.137405
-0.383057,-0.401611,0.091309,-30.030535,-75.946564,57.9771
-0.263184,-0.486572,0.063721,-19.015266,-42.488548,47.244274
-0.465332,-0.548096,-0.061279,-1.946565,-20.267176,40.374046
-0.625,-0.417236,-0.025391,11.824428,-17.908398,28.877863
-0.698242,-0.275879,0.023682,22.854961,-14.366412,16.732824
-0.672119,-0.271973,0.063965,32.511452,-8.694656,4.206107
-0.611084,-0.34082,0.081299,41.625954,5.045802,-10.206107
-0.592529,-0.363037,0.081543,44.770992,14.053435,-17.053434
-0.676758,-0.366455,0.016113,48.251907,25.366413,-21.625954
-0.717285,-0.410889,-0.066406,45.305344,32.610687,-24.091602
-0.743652,-0.44751,-0.135986,39.175571,36.610687,-22.969465
-0.775879,-0.484863,-0.169434,29.007633,33.427483,-17.099237
-0.837158,-0.534912,-0.190918,18.19084,25.450382,-8.030535
-0.879395,-0.613037,-0.183105,9.251908,15.290076,3.374046
-0.880371,-0.650391,-0.121338,3.480916,13.603053,12.770992
-0.926758,-0.650391,-0.073242,-1.015267,13.732824,22.503817
-0.966309,-0.67041,-0.098877,-5.122138,11.007633,31.633587
-0.982178,-0.667236,-0.122314,-6.519084,9.297709,37.198475
-0.976562,-0.638184,-0.125244,-7.755725,11.824428,40.091602
-0.935547,-0.626709,-0.12085,-6.030534,12.59542,41.709923
-0.941895,-0.566406,-0.148682,-1.961832,9.893129,39.091602
-1.010742,-0.297852,-0.154297,-1.610687,1.068702,28.259542
-0.9021,-0.313477,-0.131592,-4.465649,-11.992367,20.938931
-0.75,-0.376465,-0.130371,-1.687023,-3.732824,8.893129
-0.754883,-0.400879,-0.130371,4.59542,4.969466,2.328244
-0.76416,-0.405518,-0.13623,8.267176,11.167939,-1.290076
-0.825928,-0.39502,-0.136719,8.534351,11.442748,-4.748092
-0.775146,-0.424805,-0.117432,7.152672,14.847328,-3.412214
-0.780762,-0.435547,-0.116699,6.870229,18.114504,-1.29771
-0.790771,-0.295654,-0.008057,-2.679389,29.175573,2.725191
-1.048828,-0.72876,-0.380615,2.244275,2.40458,12.732824
-0.730957,-0.321045,-0.049072,-4.969466,-1.977099,18.251909
-0.818359,-0.47876,-0.202637,-8.099236,-0.10687,23.671755
-0.859375,-0.49292,-0.235352,-9.625955,-3.610687,24.893129
-0.841797,-0.452148,-0.212402,-9.893129,-3.167939,25.404581
-0.849121,-0.469482,-0.210205,-10.519084,-1.175573,23.931297
-0.847656,-0.539062,-0.210449,-8.244275,2.580153,26.824427
-0.824219,-0.428223,-0.150146,-8.297709,7.366412,14.198473
-0.915283,-0.476807,-0.18335,-8.343512,6.244275,17.595419
-0.964355,-0.524414,-0.213379,-8.984733,5.366412,14.755725
-0.936035,-0.51001,-0.19043,-7.793893,6.549618,11.977099
-0.916504,-0.491455,-0.182617,-6.19084,7.343512,10.641221
-0.878906,-0.498779,-0.182129,-4.748092,6.442748,10.175572
-0.831787,-0.461426,-0.156006,-3.534351,5.725191,11.442748
-0.833252,-0.446289,-0.155273,-1.870229,8.717557,9.80916
-0.849854,-0.44043,-0.158203,0.305344,9.717557,7.114504
-0.861572,-0.407471,-0.147217,2.687023,10.251908,5.40458
