AX,AY,AZ,GX,GY,GZ
-0.391357,0.868652,0.059082,3.152672,2.022901,-13.137404
-0.390137,0.86377,0.064209,3.709924,2.251908,-14.053435
-0.408936,0.874756,0.065918,3.648855,1.656489,-14.946565
-0.38501,0.868164,0.073486,3.435115,1.572519,-14.893129
-0.397705,0.86499,0.056885,3.908397,1.938931,-14.992367
-0.403076,0.872314,0.060547,3.748092,1.992366,-14.488549
-0.404785,0.869873,0.05249,3.038168,2.89313,-14.893129
-0.412354,0.869141,0.069092,1.48855,3.381679,-14.763359
-0.420898,0.846924,0.060547,0.473282,3.709924,-14.664123
-0.429688,0.825439,0.063232,0.564885,4.427481,-14.427481
-0.440918,0.824707,0.072754,1.030534,4.824428,-14.0
-0.444336,0.8125,0.056152,1.587786,5.076336,-14.427481
-0.443359,0.819336,0.062012,2.412214,4.580153,-13.862596
-0.449463,0.818359,0.05249,2.870229,3.717557,-12.923664
-0.447021,0.817139,0.054443,3.70229,3.961832,-13.122137
-0.449463,0.828369,0.052734,4.015267,3.572519,-12.984733
-0.455566,0.826172,0.055908,3.664122,3.450382,-12.748092
-0.465576,0.827148,0.046631,3.900763,3.183206,-13.267176
-0.450684,0.824219,0.061279,3.389313,4.412214,-15.122137
-0.451904,0.824707,0.054688,3.053435,4.946565,-15.679389
-0.452637,0.8125,0.053955,2.832061,4.175572,-15.061069
-0.446289,0.810791,0.054199,3.122137,4.328244,-14.816793
-0.451416,0.806885,0.05127,3.389313,4.725191,-14.305344
-0.462402,0.811279,0.052979,4.08397,4.236641,-14.541985
-0.460693,0.823242,0.054688,4.374046,4.045802,-15.954199
-0.472656,0.828125,0.052734,4.541985,3.419847,-16.305344
-0.460449,0.81958,0.05249,5.167939,2.78626,-17.160305
-0.462158,0.831787,0.051514,5.992366,2.541985,-18.503817
-0.473633,0.835693,0.052979,6.320611,1.610687,-18.725191
-0.450439,0.818115,0.039307,7.152672,1.458015,-19.374046
-0.464844,0.825439,0.045654,7.625954,1.793893,-19.763359
-0.467529,0.817627,0.041016,7.961832,2.221374,-20.885496
-0.475342,0.803223,0.024414,8.022901,2.503817,-21.175573
-0.486328,0.788086,0.040771,8.198473,2.343511,-20.961832
-0.487793,0.799561,0.048096,7.641222,1.374046,-20.450382
-0.480713,0.778564,0.04126,7.427481,0.59542,-20.801527
-0.476318,0.782959,0.032959,7.977099,0.427481,-21.0
-0.481689,0.789307,0.032227,7.70229,-0.198473,-21.435114
-0.484863,0.798096,0.029053,7.458015,-0.335878,-22.030535
-0.487793,0.791016,0.037598,7.496183,0.40458,-23.091602
-0.494629,0.781982,0.023193,7.335878,0.732824,-23.61832
-0.492188,0.776611,0.043945,7.343512,1.312977,-24.534351
-0.505615,0.771973,0.053223,7.48855,1.480916,-25.099237
-0.513184,0.762939,0.041748,8.351145,0.694656,-25.083969
-0.509033,0.755859,0.032715,8.816793,1.160305,-25.358778
-0.51709,0.757324,0.030273,8.824428,1.816794,-24.847328
-0.519287,0.757324,0.029053,9.167939,1.931298,-23.893129
-0.519043,0.768066,0.025391,8.816793,2.19084,-23.938931
-0.529297,0.76416,0.020508,8.564885,2.007634,-24.480917
-0.519287,0.760742,0.022461,8.916031,2.534351,-25.641222
-0.520508,0.752197,0.025635,9.503817,2.923664,-26.70229
-0.52002,0.749756,0.029053,10.488549,3.152672,-27.580153
-0.544189,0.73584,0.023193,11.480916,3.19084,-27.755726
-0.562744,0.714355,0.026367,12.053435,2.236641,-28.236641
-0.572021,0.713867,0.025635,12.78626,1.427481,-29.656488
-0.576904,0.714111,0.011719,13.167939,-0.183206,-30.305344
-0.571045,0.716064,0.017334,13.374045,-1.740458,-31.12977
-0.55835,0.71582,0.010986,13.335877,-2.076336,-32.007633
-0.550049,0.710938,0.006592,13.038168,-1.381679,-32.603054
-0.544189,0.688477,-0.001953,13.274809,-0.89313,-32.305344
-0.563477,0.69458,-0.002686,13.824428,-0.427481,-32.015266
-0.574219,0.708008,0.001221,12.969465,-0.015267,-31.251909
-0.587402,0.702881,0.003174,12.389313,0.618321,-30.969465
-0.609863,0.69043,0.002197,12.320611,0.450382,-29.80916
-0.626709,0.683105,0.010986,11.824428,-0.068702,-29.328245
-0.640625,0.669678,0.012695,11.450381,-1.343511,-28.717558
-0.645508,0.671387,0.019043,11.160305,-2.40458,-27.824427
-0.640381,0.656006,0.023926,12.236641,-2.801527,-28.610687
-0.644775,0.675781,0.030273,12.78626,-3.076336,-29.450382
-0.640137,0.689209,0.03125,12.709924,-2.068702,-31.48855
-0.628174,0.678223,0.031494,13.229008,-0.229008,-33.305344
-0.618164,0.676758,0.040771,14.38168,2.259542,-35.152672
-0.624268,0.695068,0.022217,15.564885,4.89313,-37.274811
-0.643555,0.678711,0.003174,17.770992,5.78626,-38.236641
-0.671143,0.68457,-0.006104,18.862595,5.091603,-39.160305
-0.69458,0.676758,-0.007568,19.335878,4.946565,-40.992367
-0.709473,0.657715,-0.00708,19.419847,4.923664,-42.786259
-0.707275,0.62207,-0.017334,19.587786,4.755725,-43.694656
-0.716309,0.588867,-0.004395,20.091602,3.885496,-43.099236
-0.712646,0.581055,0.000488,20.022902,2.969466,-41.312977
-0.698242,0.561035,-0.005127,18.938931,2.740458,-39.030533
-0.697754,0.530029,-0.010986,18.587786,2.351145,-37.725189
-0.701904,0.532227,-0.029541,18.557251,0.625954,-36.328243
-0.692627,0.531982,-0.035889,17.770992,-0.732824,-36.572517
-0.674805,0.545898,-0.036621,16.671755,-0.534351,-37.129772
-0.665771,0.565674,-0.048584,14.908397,0.778626,-38.007633
-0.643799,0.580322,-0.043945,12.450381,3.40458,-38.954197
-0.629639,0.578613,-0.065918,9.740458,6.80916,-40.854961
-0.615479,0.574463,-0.062744,8.687023,10.793893,-41.923664
-0.621582,0.575439,-0.059326,7.931298,14.687023,-43.427483
-0.625244,0.562012,-0.05542,5.977099,17.87023,-45.183205
-0.615234,0.546143,-0.05835,5.442748,20.061069,-45.938931
-0.629395,0.546143,-0.056885,5.129771,20.450382,-45.70229
-0.62207,0.537598,-0.045654,4.763359,20.564886,-46.160305
-0.617188,0.531738,-0.039795,4.862596,20.709923,-46.580154
-0.609131,0.5354,-0.042236,5.389313,21.351145,-47.053436
-0.614258,0.533691,-0.036377,5.816794,20.732824,-46.442749
-0.600098,0.526123,-0.028564,6.839694,20.480917,-46.610687
-0.615234,0.527588,-0.036377,7.122138,19.206106,-46.725189
-0.599121,0.508545,-0.040283,7.351145,18.267176,-49.290077
-0.601807,0.513916,-0.051758,7.374046,18.274809,-51.137405
-0.603027,0.503906,-0.048828,6.664122,17.053434,-51.908398
-0.584961,0.467773,-0.03125,6.412214,16.80916,-50.992367
-0.595459,0.435303,-0.047363,6.946565,15.450381,-50.549618
-0.616211,0.39502,-0.059082,7.572519,15.732824,-52.389313
-0.627686,0.375244,-0.074219,7.816794,18.091602,-55.862595
-0.630615,0.358643,-0.066162,6.320611,18.145039,-55.190838
-0.663818,0.293213,-0.120361,5.694656,20.076336,-55.160305
-0.676514,0.252686,-0.138428,3.748092,18.396946,-53.847328
-0.692383,0.222168,-0.130615,1.824427,14.419847,-52.534351
-0.664307,0.1604,-0.102295,2.648855,14.511451,-55.503819
-0.623047,0.126465,-0.063477,5.984733,15.862596,-56.816795
-0.624512,0.12085,-0.072266,12.267176,17.091602,-57.908398
-0.620605,0.178223,-0.07373,17.51145,15.755725,-59.870228
-0.623291,0.239502,-0.086182,21.67939,16.832062,-60.633587
-0.63623,0.311523,-0.092285,24.358778,15.099236,-61.068703
-0.630127,0.392822,-0.092773,25.274809,11.870229,-60.244274
-0.617188,0.409912,-0.099365,24.229008,9.633588,-61.885498
-0.618652,0.412354,-0.089111,23.0,7.679389,-65.007637
-0.603516,0.378418,-0.068604,22.282442,6.900764,-69.198471
-0.597168,0.308594,-0.066162,22.793894,4.954198,-72.580154
-0.560547,0.249268,-0.059326,24.595419,2.717557,-77.206108
-0.554443,0.208252,-0.063721,27.0,2.358779,-82.236641
-0.536377,0.221436,-0.062744,29.748091,1.687023,-86.954201
-0.53833,0.263672,-0.058838,30.847328,-0.763359,-90.137405
-0.521729,0.299072,-0.047363,29.969465,-4.053435,-90.35878
-0.478271,0.288818,-0.046875,28.229008,-5.229008,-90.39695
-0.446777,0.260498,-0.039795,25.770992,-4.51145,-88.740456
-0.458496,0.18335,-0.030029,22.236641,-2.076336,-89.793892
-0.428223,0.086182,-0.03833,22.557251,0.641221,-93.229004
-0.442383,0.006348,-0.046387,25.526718,3.167939,-99.091606
-0.450928,-0.085938,-0.061035,27.534351,7.412214,-109.435112
-0.47876,-0.19458,-0.069336,31.458015,13.038168,-117.954201
-0.524902,-0.255127,-0.051025,35.778625,15.534351,-122.32061
-0.602539,-0.385742,-0.083008,37.931297,19.534351,-127.175575
-0.743164,-0.497559,-0.168457,43.61832,30.427481,-141.213745
-0.994629,-0.503662,-0.175293,49.35878,41.190838,-151.122131
-1.189941,-0.398193,-0.222656,65.030533,41.610687,-150.900757
-1.367432,-0.182373,-0.248535,79.595421,27.534351,-134.2061
-1.481689,-0.052246,-0.399658,77.39695,34.557251,-140.106873
-1.393799,0.111572,-0.73877,60.129772,57.259541,-136.809158
-0.802734,0.614258,-1.246826,-1.969466,107.198471,-72.137405
-2.0,-1.485107,-2.0,-4.030534,89.862595,-2.183206
-2.0,-0.211182,-2.0,-45.328243,-53.480915,41.923664
-2.0,-2.0,-1.826416,-193.694656,-250.137405,-116.167938
-1.267578,-2.0,-0.244629,59.938931,-187.572525,-165.480911
-2.0,0.614258,0.121826,91.053436,-84.633591,-89.60305
-2.0,0.83374,0.539551,15.931297,-16.725191,-93.366409
-2.0,-0.044678,0.48999,-20.335878,41.664124,-178.984726
-1.958008,0.189941,0.577881,-30.770992,91.145035,-243.35878
-1.187988,0.256836,0.446533,-54.351147,130.816788,-250.137405
-0.116211,-0.483887,0.166748,-72.427483,173.595413,-250.137405
0.483398,-1.643066,-0.102539,-58.183205,184.595413,-250.137405
0.11499,-2.0,-0.602051,-9.656488,131.809158,-154.893127
-0.690674,-1.873291,-1.008057,10.38168,51.671757,-42.106869
-1.009277,-1.384277,-0.935791,3.335878,-31.641222,39.610687
-0.645264,-1.130859,-0.446045,-3.290076,-59.923664,58.34351
-0.502686,-0.683594,-0.087402,-12.473283,-60.267174,54.0
-0.565674,-0.411865,0.003174,-36.106869,-57.106869,72.916031
-0.669434,-0.636963,-0.124268,-42.992367,-58.450382,70.183205
-0.634277,-0.804443,-0.176025,-36.786259,-59.625954,52.061069
-0.52002,-0.841553,-0.1875,-22.236641,-51.137405,30.664122
-0.380371,-0.779541,-0.103516,-11.816793,-31.984734,19.541985
-0.345703,-0.669678,-0.056152,-5.778626,-10.610687,22.152672
-0.460938,-0.577637,-0.110107,4.419847,13.38168,26.80916
-0.656494,-0.461182,-0.194824,12.755725,29.671755,30.725191
-0.859619,-0.376221,-0.265381,19.923664,38.267174,28.755726
-1.071777,-0.294678,-0.337891,23.137405,37.511452,23.847328
-1.474365,-0.23584,-0.547607,17.343512,32.870228,3.396947
-1.312744,-0.058838,-0.304199,12.290076,21.946566,-10.412213
-1.086426,-0.165771,-0.29126,12.061069,-2.206107,-16.603054
-0.943604,-0.237549,-0.263916,10.877863,11.419847,-26.961832
-0.856445,-0.331299,-0.210205,12.732824,22.007633,-21.076336
-0.862061,-0.429688,-0.177002,15.167939,28.175573,-16.038168
-0.88501,-0.440918,-0.173828,15.893129,29.526718,-13.61832
-0.921387,-0.407715,-0.190186,17.076336,27.526718,-9.473283
-0.911377,-0.411621,-0.181885,18.984734,26.167938,-7.839694
-0.879883,-0.426514,-0.201172,22.404581,22.160305,-10.007633
-0.859375,-0.411621,-0.220215,25.564886,18.633587,-13.877863
-0.827637,-0.437988,-0.253906,27.816793,15.099236,-19.137405
-0.755859,-0.43335,-0.249756,30.816793,16.709923,-26.32061
-0.689697,-0.417725,-0.22583,31.732824,20.450382,-28.412214
-0.689453,-0.386719,-0.216064,30.938931,23.725191,-26.29771
-0.718506,-0.41626,-0.230225,28.534351,26.32061,-23.847328
-0.807129,-0.363525,-0.215332,29.351145,21.832062,-32.541985
-0.749268,-0.458496,-0.212891,19.251909,27.610687,-14.931297
-0.835938,-0.604248,-0.314941,16.435114,34.335876,-18.763359
-0.92749,-0.693359,-0.411621,19.152672,29.343512,-23.633587
-0.926758,-0.736816,-0.412598,22.091602,25.229008,-29.885496
-0.89624,-0.749512,-0.396484,24.229008,23.312977,-36.70229
