AX,AY,AZ,GX,GY,GZ
-0.241699,0.940918,0.069336,4.167939,1.099237,-17.435114
-0.235596,0.931641,0.074463,4.343512,0.70229,-18.541985
-0.240234,0.933105,0.06543,5.007634,0.442748,-19.641222
-0.240234,0.928955,0.083252,5.832061,0.061069,-20.198473
-0.253418,0.925293,0.070557,6.343512,-0.221374,-21.549618
-0.256836,0.931152,0.065918,6.587786,-0.061069,-22.51145
-0.268555,0.936035,0.057617,6.770992,-0.740458,-23.503817
-0.262695,0.929688,0.060303,6.274809,-1.160305,-24.984734
-0.280273,0.923828,0.053711,6.534351,-1.671756,-26.450382
-0.273438,0.908936,0.054443,7.091603,-1.923664,-28.312977
-0.273682,0.897461,0.068359,7.717557,-1.80916,-29.221375
-0.286377,0.877686,0.072266,8.282443,-2.480916,-29.473282
-0.29541,0.869629,0.069336,9.374045,-3.473282,-29.068703
-0.304688,0.860352,0.068115,9.893129,-3.679389,-28.969465
-0.30835,0.884277,0.073242,10.007633,-3.832061,-28.862595
-0.307617,0.902588,0.073975,9.923664,-4.21374,-28.106871
-0.312988,0.917969,0.074707,8.541985,-3.519084,-28.442749
-0.311523,0.907227,0.067871,7.473282,-3.091603,-29.007633
-0.317627,0.888184,0.068359,8.007633,-2.633588,-29.610687
-0.331299,0.876709,0.056885,8.007633,-2.557252,-30.12977
-0.338867,0.861328,0.064697,7.854962,-2.435115,-30.412214
-0.341309,0.842041,0.053711,7.839694,-3.0,-29.19084
-0.366943,0.831787,0.052246,8.267176,-3.480916,-28.251909
-0.36499,0.840088,0.04248,7.694656,-3.045802,-27.70229
-0.381592,0.838379,0.032715,7.129771,-2.732824,-27.664122
-0.379639,0.843018,0.039795,7.755725,-3.328244,-27.328245
-0.383057,0.841064,0.043701,7.778626,-3.954198,-27.106871
-0.369141,0.824707,0.043213,7.908397,-3.900763,-27.221375
-0.370605,0.828369,0.040283,7.854962,-3.312977,-27.38168
-0.380127,0.833496,0.062012,8.106871,-3.458015,-27.931297
-0.376465,0.830566,0.056885,8.511451,-3.503817,-27.824427
-0.385498,0.829102,0.050293,8.641221,-3.244275,-28.572519
-0.392578,0.830078,0.041504,8.610687,-2.931298,-29.67939
-0.387451,0.837402,0.048096,8.564885,-2.778626,-30.885496
-0.386719,0.824951,0.03833,8.473283,-2.328244,-32.145039
-0.395264,0.813721,0.049805,8.923664,-1.328244,-34.183205
-0.383545,0.788574,0.044922,10.175572,2.328244,-38.335876
-0.429688,0.853516,0.037109,8.480916,3.076336,-39.61832
-0.403809,0.807861,0.03833,9.099236,1.778626,-39.763359
-0.414551,0.813965,0.028809,8.458015,2.900763,-41.65649
-0.426514,0.770752,0.016113,8.832061,3.045802,-40.923664
-0.436279,0.780518,0.010498,9.053435,3.732824,-39.893131
-0.450195,0.778809,0.018311,7.687023,2.778626,-38.0
-0.457031,0.766602,0.029785,7.198473,1.267176,-36.946564
-0.448975,0.738525,0.039307,7.045802,0.076336,-35.893131
-0.44873,0.741699,0.028809,7.931298,-0.854962,-35.717556
-0.449951,0.74707,0.020508,8.564885,-1.51145,-34.9771
-0.462402,0.743164,0.016113,8.847328,-2.557252,-34.053436
-0.460449,0.755615,0.035889,7.687023,-3.129771,-31.984734
-0.468506,0.743652,0.029541,8.40458,-3.419847,-31.862595
-0.490234,0.73584,0.020996,8.435115,-3.21374,-31.198473
-0.506836,0.752197,0.013428,8.427481,-3.152672,-31.526718
-0.510742,0.760498,0.010254,8.519084,-3.068702,-31.503817
-0.513672,0.761475,0.016846,7.374046,-2.984733,-30.076336
-0.523926,0.753418,0.018555,7.854962,-2.824427,-29.167938
-0.521973,0.756592,0.017578,8.374045,-2.587786,-27.519083
-0.520996,0.753174,0.036377,9.801527,-2.267176,-26.786259
-0.539307,0.769287,0.04248,11.106871,-3.152672,-27.335878
-0.534912,0.791504,0.039307,12.412213,-4.763359,-29.160305
-0.524902,0.779785,0.048584,13.61832,-5.732824,-31.267176
-0.516113,0.787109,0.052734,14.816793,-6.633588,-32.969467
-0.518799,0.796875,0.037354,15.839695,-7.229008,-35.725189
-0.521484,0.800537,0.044189,16.061069,-7.770992,-38.549618
-0.520508,0.792969,0.045654,15.557252,-8.167939,-42.038166
-0.506592,0.795654,0.04834,15.435115,-7.419847,-45.877861
-0.509277,0.785156,0.044922,15.145039,-6.503817,-50.587788
-0.527344,0.775146,0.036377,14.732824,-5.068702,-55.015266
-0.533936,0.738281,0.029053,14.61832,-2.847328,-60.488548
-0.544189,0.761963,0.016846,13.748092,0.152672,-63.190838
-0.521973,0.696289,0.028076,13.717557,-0.145038,-65.39695
-0.546387,0.684082,0.018555,13.931297,0.709924,-67.725189
-0.553467,0.672852,0.023193,13.946565,2.076336,-68.725189
-0.546875,0.636963,0.016602,14.473283,3.458015,-70.030533
-0.569092,0.631348,0.01709,14.0,3.519084,-69.213737
-0.57251,0.609375,0.009277,13.526717,3.954198,-69.129768
-0.577393,0.586914,0.008301,13.297709,5.374046,-71.190842
-0.600098,0.576172,0.000244,12.335877,6.656488,-73.28244
-0.599121,0.529053,0.007568,11.78626,9.931297,-76.122139
-0.602539,0.515869,-0.001221,11.671756,12.702291,-78.389313
-0.625732,0.513428,0.0,10.908397,14.549619,-79.0
-0.625488,0.484863,0.006836,10.458015,15.885496,-79.732826
-0.633301,0.473633,0.015869,9.923664,17.068703,-79.854965
-0.634521,0.477051,0.01416,9.366412,17.290077,-79.198471
-0.648926,0.474365,-0.007324,8.435115,16.290077,-77.419846
-0.659424,0.447021,0.001953,7.08397,15.030535,-75.916031
-0.641602,0.419678,-0.014404,6.389313,14.671756,-73.610687
-0.666016,0.354492,-0.030273,7.732824,16.664122,-72.381676
-0.604248,0.378662,-0.003662,8.847328,18.12977,-72.267174
-0.632324,0.357666,-0.000244,11.015267,19.465649,-71.526718
-0.61499,0.357666,-0.001709,13.206107,20.595419,-72.496185
-0.606934,0.386963,-0.016113,15.267176,21.793894,-72.061066
-0.625244,0.407959,-0.01416,16.206106,21.29771,-69.946564
-0.609863,0.412842,-0.02417,15.816793,20.854961,-68.893127
-0.601562,0.411133,-0.00415,15.137404,20.099237,-67.786263
-0.589844,0.417725,-0.033936,14.114504,19.641222,-67.229004
-0.580811,0.394287,-0.024414,13.702291,19.328245,-68.32061
-0.580811,0.389648,-0.025879,12.396947,18.259542,-70.748093
-0.554688,0.369873,-0.014648,13.664123,16.442749,-73.511452
-0.549561,0.360352,-0.024414,14.763359,17.167938,-77.862595
-0.539795,0.348877,-0.024902,16.419847,17.061069,-82.732826
-0.513916,0.362061,-0.012451,19.0,17.160305,-84.893127
-0.501221,0.35498,-0.020996,19.954199,18.32061,-89.404579
-0.48999,0.364014,-0.02002,19.923664,19.70229,-95.526718
-0.484131,0.326416,-0.032471,20.38168,20.427481,-99.67939
-0.500488,0.281494,-0.04248,20.549618,20.259542,-102.35878
-0.504395,0.241211,-0.04834,20.053434,19.595419,-104.267174
-0.490967,0.16748,-0.03125,20.480917,17.580153,-104.847328
-0.453613,0.075928,-0.031738,22.549618,19.580153,-108.725189
-0.464111,0.042725,-0.049316,26.175573,18.748091,-111.60305
-0.440186,-0.024414,-0.071289,30.755726,18.916031,-112.587784
-0.390625,-0.091553,-0.073486,35.65649,21.458015,-119.312981
-0.328369,-0.113281,-0.072754,40.076336,28.671755,-126.763359
-0.30249,-0.132812,-0.093506,43.526718,34.748093,-126.694656
-0.292725,-0.104736,-0.132812,44.030533,40.282444,-116.351143
-0.4104,-0.027588,-0.14209,39.106869,38.503819,-102.022903
-0.498535,-0.155029,-0.12207,29.076336,35.511452,-95.732826
-0.575439,-0.416016,-0.105469,26.099237,30.244274,-94.244278
-0.645752,-0.692871,-0.060791,30.267176,31.824427,-99.35878
-0.742432,-0.846924,-0.01001,38.167938,34.595421,-105.129768
-0.595947,-0.271729,0.155273,34.152672,42.65649,-132.648849
-0.960693,-0.824463,-0.043701,45.206108,30.396946,-99.160309
-1.0625,-0.662842,-0.000488,64.335876,18.664122,-113.763359
-1.291504,-0.248535,-0.108398,93.671753,11.549619,-130.297714
-1.787842,0.217773,-0.603516,121.954201,8.847328,-168.488556
-1.917236,0.750977,-1.231689,102.549622,33.435116,-196.229004
-1.176514,1.098877,-2.0,-16.412214,65.152672,-175.511444
-2.0,-1.749023,-2.0,38.603054,-70.526718,-114.312981
-2.0,0.241943,-1.729248,-63.274811,-250.137405,-77.694656
-1.628906,-2.0,-0.476807,-195.152664,-250.137405,-95.557251
-1.297119,-2.0,-1.429688,-37.625954,-238.259537,-63.366413
-2.0,0.335205,0.260254,-250.137405,-250.137405,-74.0
-0.926514,1.999939,-1.69165,-250.137405,-164.152664,131.328247
-2.0,-2.0,-1.013916,-250.137405,42.274811,-145.809158
-1.244385,-0.13623,1.428711,-23.541985,44.671757,-135.946564
-0.349609,-0.920166,0.392578,-67.083969,250.129776,-219.664124
1.03125,-1.902344,-0.58252,-82.488548,250.129776,-250.137405
0.718018,-2.0,-1.485352,-18.51145,250.129776,-168.083969
0.328369,-2.0,-2.0,35.885498,250.129776,-47.557251
-0.775635,-1.484375,-1.985596,81.664124,250.129776,84.64122
-2.0,-0.565186,-1.676758,75.763359,221.908401,126.702293
-2.0,0.553223,-0.56543,38.633587,14.152672,118.793892
-1.640381,0.070068,-0.490479,-2.21374,-150.580154,69.793892
-0.522461,-0.29126,-0.30127,-11.236641,-122.564888,29.770992
-0.318359,-0.337158,-0.200928,-26.458015,-123.671753,51.099236
-0.01001,-0.812744,-0.74292,-9.610687,-101.977097,75.076332
0.074707,-0.867188,-0.67627,11.511451,-77.580154,89.633591
0.001221,-0.5354,-0.410156,23.030535,-40.167938,100.221375
-0.16626,-0.239502,-0.23291,30.900763,2.801527,120.297707
-0.49292,0.011963,-0.216309,27.328245,31.038168,114.740456
-0.862549,0.182129,-0.168213,19.770992,31.0,87.694656
-1.124023,0.339844,-0.225586,10.946565,11.80916,72.061066
-1.241699,0.369141,-0.215088,0.59542,-12.244275,51.65649
-1.19873,0.274658,-0.213867,-7.717557,-28.389313,28.755726
-1.046631,0.134766,-0.209717,-13.908397,-35.282444,13.114504
-0.920654,-0.038818,-0.26416,-12.587787,-29.786259,3.030534
-0.871338,-0.173584,-0.312744,-8.152672,-20.503817,-2.78626
-0.856689,-0.22168,-0.312988,-1.969466,-11.21374,-2.045802
-0.917725,-0.212891,-0.294434,2.099237,-6.099236,2.312977
-1.004639,-0.181885,-0.291748,3.755725,-7.358778,4.732824
-0.999023,-0.163818,-0.268555,6.847328,-5.580153,2.625954
-0.987549,-0.104492,-0.248779,10.244275,-1.900763,-0.198473
-0.967041,-0.059082,-0.223877,11.40458,-0.274809,-0.877863
-0.87915,-0.080078,-0.243652,13.175572,4.557252,-5.946565
-0.85791,-0.07251,-0.25415,17.083969,11.687023,-11.519084
-0.836182,-0.060547,-0.248047,20.19084,17.328245,-17.145039
-0.810059,-0.074707,-0.246094,21.938931,19.419847,-21.145039
-0.76123,-0.115479,-0.246826,22.175573,21.068703,-23.87023
-0.73584,-0.1521,-0.268555,23.328245,21.580153,-24.885496
-0.732666,-0.192383,-0.299805,23.099237,24.671755,-25.282442
-0.746094,-0.215088,-0.282715,22.221375,27.900763,-25.938931
-0.766357,-0.223877,-0.279053,21.12977,32.740459,-23.366413
-0.787842,-0.234619,-0.296875,19.977098,39.770992,-24.137405
-0.819092,-0.224609,-0.329834,17.435114,44.236641,-24.152672
-0.834229,-0.223633,-0.349854,14.923664,48.038166,-24.175573
