AX,AY,AZ,GX,GY,GZ
-0.11792,0.922119,0.453369,-7.984733,5.015267,-1.717557
-0.11792,0.925781,0.439941,-7.725191,4.053435,-2.725191
-0.117188,0.921387,0.416748,-8.305344,3.10687,-3.480916
-0.126953,0.934082,0.394775,-8.541985,2.503817,-3.557252
-0.130615,0.926025,0.380371,-10.122137,1.671756,-3.78626
-0.130615,0.927246,0.367188,-13.419847,2.022901,-3.770992
-0.124756,0.910645,0.387695,-16.091602,1.832061,-3.625954
-0.12085,0.922607,0.390381,-19.076336,2.572519,-2.641221
-0.11377,0.904541,0.401611,-20.541985,3.946565,-2.389313
-0.115479,0.904541,0.420166,-20.541985,5.229008,-2.160305
-0.108398,0.906006,0.44751,-20.267176,4.931298,-1.564885
-0.095215,0.886963,0.457031,-21.068703,5.10687,-1.145038
-0.085938,0.881592,0.460205,-20.435114,5.167939,-0.229008
-0.089844,0.859619,0.452393,-18.755726,4.839694,0.480916
-0.086426,0.875977,0.44043,-18.832062,4.274809,1.564885
-0.080811,0.87085,0.420898,-19.916031,2.770992,3.549618
-0.075684,0.859375,0.382812,-21.32061,3.473282,2.740458
-0.07959,0.876953,0.398438,-25.206106,5.076336,1.458015
-0.079834,0.870361,0.390869,-27.351145,5.839694,0.183206
-0.078613,0.859375,0.407227,-28.038168,6.259542,-1.274809
-0.083984,0.857666,0.419189,-28.450382,6.908397,-3.366412
-0.101562,0.863037,0.431641,-29.221375,7.099236,-4.38168
-0.111084,0.85498,0.464844,-29.183207,6.099236,-5.198473
-0.118408,0.861328,0.488037,-28.290077,4.70229,-5.854962
-0.133301,0.848145,0.494629,-27.038168,2.557252,-6.633588
-0.137939,0.844482,0.487793,-27.290077,0.343511,-7.931298
-0.144043,0.849121,0.491699,-29.587786,-0.732824,-8.366412
-0.155273,0.844971,0.477295,-31.328245,-2.175573,-8.496183
-0.157471,0.837646,0.499512,-33.916031,-3.305344,-8.603053
-0.162842,0.828369,0.509521,-34.396946,-5.259542,-8.320611
-0.168213,0.812988,0.525391,-33.557251,-6.534351,-8.183207
-0.177979,0.803467,0.526367,-32.557251,-5.679389,-7.557252
-0.180908,0.792236,0.525635,-31.206106,-4.572519,-7.022901
-0.182861,0.784912,0.537598,-30.32061,-3.076336,-5.931298
-0.177246,0.782715,0.553955,-31.045801,-2.076336,-4.717557
-0.186523,0.786133,0.578857,-32.824429,-1.29771,-3.419847
-0.189453,0.782227,0.606934,-32.839695,-2.206107,-2.045802
-0.185791,0.785645,0.632568,-31.664122,-3.961832,-0.038168
-0.18457,0.772217,0.630615,-31.832062,-5.877862,1.694656
-0.182129,0.771729,0.630859,-32.580154,-6.603054,3.175573
-0.17749,0.765137,0.655762,-34.625954,-6.29771,4.068702
-0.173584,0.754639,0.672607,-35.229008,-6.030534,4.351145
-0.175781,0.754395,0.681152,-35.419846,-4.664122,4.427481
-0.166016,0.746094,0.688721,-34.625954,-3.610687,5.435114
-0.153564,0.748047,0.685303,-33.763359,-4.335878,5.732824
-0.154541,0.741211,0.686768,-34.335876,-6.160306,6.312977
-0.152588,0.744873,0.69751,-35.9771,-7.740458,5.854962
-0.140381,0.724365,0.722168,-36.404579,-10.122137,5.625954
-0.131592,0.711914,0.740723,-37.603054,-11.091603,5.251908
-0.123291,0.705322,0.744141,-37.908398,-12.59542,5.740458
-0.106934,0.685303,0.770264,-36.67939,-14.862596,6.229008
-0.102051,0.688232,0.7854,-37.206108,-15.534351,6.801527
-0.091309,0.664062,0.773926,-36.587788,-16.351145,8.091603
-0.083496,0.67334,0.770264,-36.34351,-15.335877,7.519084
-0.073486,0.649902,0.779053,-35.534351,-15.877863,6.725191
-0.072754,0.64917,0.768311,-33.519085,-15.908397,6.755725
-0.061523,0.636475,0.773193,-33.030533,-12.503817,5.48855
-0.058594,0.623291,0.770264,-30.770992,-9.251908,4.89313
-0.071289,0.622314,0.766846,-27.908398,-7.198473,5.076336
-0.0625,0.631104,0.756836,-26.732824,-5.427481,4.641222
-0.065674,0.644531,0.762207,-26.564886,-3.778626,4.206107
-0.066162,0.64502,0.775635,-25.770992,-3.274809,4.022901
-0.061035,0.650879,0.793213,-23.389313,-3.114504,2.740458
-0.060303,0.660645,0.781494,-21.022902,-2.580153,4.603054
-0.072021,0.669434,0.763184,-19.786259,-3.221374,4.923664
-0.073486,0.674316,0.741699,-18.770992,-4.152672,3.328244
-0.077881,0.685547,0.728271,-22.160305,-2.862595,3.526718
-0.077637,0.687256,0.727539,-23.29771,-3.053435,3.259542
-0.078613,0.675293,0.712158,-22.748091,-3.984733,2.748092
-0.085449,0.689209,0.70459,-24.244274,-3.274809,1.664122
-0.084473,0.675537,0.69873,-25.206106,-3.351145,1.740458
-0.078857,0.671875,0.689209,-26.29771,-3.877863,2.167939
-0.075684,0.661865,0.682129,-27.259542,-3.992366,1.839695
-0.089111,0.678711,0.695068,-29.38168,-3.503817,2.870229
-0.088379,0.669434,0.692871,-29.786259,-3.198473,2.801527
-0.089111,0.671631,0.674561,-29.992367,-3.366412,2.145038
-0.088135,0.673584,0.660889,-31.343512,-4.114504,2.343511
-0.082764,0.670654,0.651855,-31.931297,-4.870229,1.984733
-0.077393,0.662842,0.640137,-33.992367,-5.534351,2.374046
-0.071777,0.662842,0.640869,-35.786259,-5.244275,2.335878
-0.073975,0.655518,0.647949,-38.458015,-4.977099,1.938931
-0.077148,0.663086,0.645264,-39.893131,-6.954198,1.763359
-0.07959,0.658203,0.637207,-42.0229,-8.992367,1.312977
-0.060791,0.651123,0.621094,-43.183205,-8.167939,0.961832
-0.061279,0.64917,0.618652,-44.083969,-9.251908,0.496183
-0.061768,0.650879,0.610596,-46.465649,-8.312977,0.480916
-0.052734,0.64209,0.599609,-48.671757,-8.183207,0.427481
-0.05835,0.62915,0.596924,-51.160305,-7.885496,-0.549618
-0.05957,0.627441,0.59082,-53.34351,-8.038168,-1.061069
-0.059326,0.623779,0.594238,-54.129772,-9.541985,-1.305344
-0.05127,0.624512,0.603516,-55.64122,-10.198473,-2.152672
-0.053955,0.620117,0.593018,-59.091602,-10.40458,-2.29771
-0.054199,0.615479,0.58374,-61.213741,-10.458015,-2.885496
-0.043213,0.602539,0.56543,-64.496185,-10.427481,-3.137405
-0.052979,0.600098,0.54834,-67.71756,-10.297709,-4.137404
-0.061523,0.596924,0.539551,-70.916031,-10.931297,-5.221374
-0.052979,0.572021,0.531738,-74.007637,-12.572519,-4.984733
-0.047852,0.561523,0.515381,-78.328247,-13.656488,-5.030534
-0.04834,0.539062,0.519043,-83.351143,-14.328244,-5.503817
-0.050781,0.524414,0.518555,-86.755722,-15.236641,-7.030534
-0.056885,0.506836,0.506592,-88.633591,-17.763359,-6.664122
-0.053955,0.500977,0.498047,-94.702293,-17.885496,-7.78626
-0.055664,0.47168,0.497803,-99.435112,-16.419847,-6.816794
-0.046631,0.44043,0.453125,-102.519081,-16.213741,-7.160306
-0.053467,0.412109,0.453613,-106.129768,-13.938931,-7.656488
-0.038818,0.377197,0.439697,-112.343513,-13.839695,-8.610687
-0.022949,0.348389,0.429932,-118.885498,-15.572519,-9.328244
-0.026611,0.303711,0.439453,-120.290077,-17.32061,-8.687023
-0.011963,0.275146,0.439697,-119.648857,-18.427481,-9.374045
-0.013672,0.257568,0.414795,-120.854965,-18.259542,-7.625954
-0.020752,0.223633,0.429688,-121.977097,-17.335878,-4.122138
-0.019775,0.201904,0.405029,-124.129768,-20.885496,-1.793893
-0.013428,0.150391,0.455811,-131.679382,-21.603054,3.541985
0.014893,0.08667,0.427734,-135.152664,-25.106871,3.290076
0.027588,0.048096,0.368652,-135.671753,-29.633587,2.89313
0.044189,-0.006104,0.329834,-141.900757,-25.061069,3.59542
0.053711,-0.062012,0.303711,-142.328247,-20.328245,7.282443
0.046875,-0.109131,0.308105,-146.381683,-16.480917,7.305344
0.058105,-0.158203,0.342529,-148.824432,-10.106871,2.656489
0.070068,-0.182861,0.370117,-152.366409,-3.183206,4.458015
0.131592,-0.238525,0.487061,-154.175568,3.328244,-1.381679
0.168701,-0.247803,0.630615,-165.061066,6.38168,-15.679389
0.164795,-0.268311,0.702881,-180.633591,11.633588,-29.954199
0.110107,-0.353516,0.853271,-204.954193,13.480916,-38.778625
0.084473,-0.456299,1.100342,-209.061066,5.290076,-46.603054
0.092041,-0.570801,1.304443,-197.061066,-6.824428,-50.65649
0.146484,-0.62085,1.289307,-181.160309,-5.465649,-44.740459
0.158936,-0.611572,1.372803,-176.305344,6.374046,-42.404579
0.238037,-0.874023,1.539307,-177.503815,20.641222,-23.038168
0.211426,-0.572266,1.997314,-250.137405,107.435112,-4.70229
-0.540283,-0.904053,1.999939,-173.977097,223.068695,-195.305344
-0.747559,-1.695068,1.999939,-220.816788,250.129776,-250.137405
-2.0,-1.90918,1.999939,-94.351143,-57.557251,-250.137405
-0.39502,-1.579102,1.999939,-30.770992,-250.137405,-225.160309
0.013916,-1.169189,1.999939,14.419847,-250.137405,-71.526718
0.947754,-1.117188,1.755615,37.290077,-205.068695,81.694656
0.595703,-0.963623,1.999939,32.145039,-250.137405,188.091599
-0.105957,-0.901855,1.999939,-48.152672,-37.274811,244.458008
0.268066,-1.071045,1.666748,-250.137405,-250.137405,82.312981
-1.043213,-1.19751,1.999939,-152.442749,-3.236641,-46.67939
0.687744,-2.0,1.959473,-6.91603,34.29771,-5.725191
0.616211,-1.939453,1.976074,102.839691,108.083969,-66.167938
0.257324,-1.328125,1.754883,79.656487,113.053436,-53.488548
0.28125,-1.14502,1.552979,80.687019,71.862595,31.984734
0.394775,-1.384521,1.401611,84.015266,20.366413,28.580153
0.890137,-0.850342,0.990479,92.419846,73.129768,70.305344
0.242188,-0.765137,1.203125,110.893127,-23.29771,8.847328
0.289062,-0.632324,0.766357,111.175575,-11.465649,6.312977
0.313232,-0.543701,0.673096,92.648857,-7.748092,3.900763
0.335693,-0.445068,0.611084,83.328247,-3.931298,-1.80916
0.326416,-0.322754,0.299561,28.748091,-13.541985,-5.648855
0.242432,-0.231934,0.374512,38.083969,11.122137,9.679389
0.14209,-0.224365,0.373535,8.366412,4.38168,14.717557
0.09375,-0.087158,0.516113,-33.709923,30.427481,18.244274
-0.025391,0.000977,0.811768,-86.801529,22.137405,6.89313
0.123779,-0.064209,0.838867,-115.885498,37.847328,-7.778626
0.155273,-0.167725,0.882324,-131.343506,42.908398,-14.358779
0.111572,-0.361328,1.003906,-109.244278,48.534351,18.564886
0.185059,-0.307617,1.103271,-75.633591,18.236641,24.984734
0.176025,-0.353271,1.166992,-42.351147,3.671756,23.755726
0.165771,-0.342529,1.166992,-22.312977,-2.633588,21.770992
0.170166,-0.342041,1.185059,-8.328244,-3.427481,19.442749
0.15332,-0.358398,1.177002,3.648855,-1.725191,15.908397
0.120361,-0.335938,1.177002,13.847328,0.801527,11.801527
0.133545,-0.399414,1.168701,18.351145,4.175572,8.068703
0.119873,-0.385742,1.157715,16.534351,1.389313,3.198473
0.105225,-0.412354,1.111328,23.213741,3.664122,0.480916
0.102539,-0.418701,1.097412,21.625954,1.442748,-1.923664
0.091553,-0.434326,1.079834,22.251909,-1.503817,-4.068702
0.103027,-0.442139,1.045166,20.19084,-4.770992,-5.679389
0.103271,-0.441895,1.018799,16.572519,-6.229008,-7.290076
0.112549,-0.431885,0.990723,14.755725,-4.633588,-6.648855
0.10791,-0.452393,0.965088,14.030535,-1.183206,-5.610687
0.104248,-0.469971,1.018555,14.099236,5.801527,-8.282443
0.076904,-0.459473,1.023193,14.251908,15.137404,-10.900764
0.037354,-0.477295,1.027588,14.702291,24.832062,-12.40458
0.000488,-0.498535,0.999268,10.793893,26.893129,-9.40458
-0.023438,-0.50415,0.996094,14.312977,24.358778,-8.244275
0.004395,-0.515625,1.031738,19.923664,16.404581,-8.183207
0.000488,-0.446289,1.031738,22.366413,19.87023,-4.183206
-0.005615,-0.403809,1.088135,16.595419,20.412214,-9.068703
0.011719,-0.404053,1.141357,16.534351,17.541985,-16.351145
0.02124,-0.389893,1.179199,14.580153,14.236641,-10.427481
0.059814,-0.467773,1.216553,18.213741,14.374045,-11.198473
0.051514,-0.466309,1.220703,26.183207,14.229008,-4.648855
0.019775,-0.46167,1.209473,34.328243,11.923664,1.633588
0.003418,-0.450195,1.195801,38.664124,10.358779,7.61832
0.031006,-0.450195,1.147949,42.114502,10.671756,10.290076
0.025635,-0.450195,1.176514,37.312977,14.091603,16.687023
0.02124,-0.459961,1.189941,32.862595,20.80916,12.564885
0.011475,-0.4729,1.2229,32.809162,24.87023,8.145039
0.011963,-0.498535,1.232666,34.916031,23.732824,6.358778
0.004639,-0.505371,1.236816,42.190838,23.725191,8.526717
-0.020508,-0.496094,1.210693,49.206108,20.564886,8.984733
-0.010742,-0.514893,1.217041,60.503819,21.282442,14.152672
