AX,AY,AZ,GX,GY,GZ
0.340576,0.970703,0.067139,8.854961,-36.038166,-33.877861
0.352295,0.929199,0.063477,10.816793,-33.473282,-34.839695
0.365234,0.839111,0.009277,12.931297,-10.412213,-31.12977
0.215576,0.762939,-0.008301,16.725191,4.870229,-13.564885
0.169189,0.772461,0.009521,8.664123,20.061069,8.076336
0.108643,0.786133,0.01709,0.40458,23.198473,36.465649
0.083008,0.85083,0.01709,-5.198473,23.099237,61.916031
0.074219,0.834717,0.018555,-9.175572,20.29771,73.129768
0.073242,0.815918,0.0271,-10.427481,13.801527,72.977097
0.125977,0.781982,0.000244,-10.610687,12.396947,66.519081
0.143066,0.770508,-0.01416,-0.938931,15.442748,58.564884
0.193115,0.810547,-0.005127,7.022901,20.893129,56.465649
0.223633,0.850342,0.003418,14.770992,25.396946,60.32061
0.231934,0.875,0.046631,13.40458,24.099237,67.862595
0.233643,0.911865,0.059326,4.793893,16.442749,71.061066
0.29126,0.923096,0.030273,-3.778626,10.633588,73.496185
0.360352,0.901123,0.018311,-7.977099,9.175572,79.343513
0.394531,0.910645,-0.012451,-7.984733,10.19084,79.595421
0.399658,0.904541,-0.016113,-7.442748,14.21374,77.488548
0.418213,0.901367,0.00293,-5.328244,15.687023,75.404579
0.44043,0.891602,-0.011963,-2.59542,16.793894,71.488548
0.455566,0.884766,-0.008789,2.549618,17.595419,67.946564
0.461182,0.859863,-0.013916,6.961832,19.778625,64.71756
0.48999,0.840088,-0.005859,14.389313,25.206106,72.099236
0.498535,0.818848,0.002441,19.51145,28.832062,74.541985
0.515381,0.834961,0.029297,21.534351,28.175573,80.206108
0.534424,0.848389,0.029785,15.183207,26.389313,78.534348
0.524902,0.842773,0.037598,8.061069,22.717558,79.763359
0.516602,0.807617,0.040771,1.099237,15.854961,80.015266
0.52417,0.768555,0.027832,-4.374046,9.259542,78.221375
0.548096,0.73291,0.016113,-7.412214,4.08397,78.160309
0.56543,0.729736,0.02002,-10.847328,-0.908397,75.824425
0.591064,0.729248,0.007812,-15.633588,-5.717557,70.801529
0.604004,0.723633,0.011963,-16.801527,-10.564885,65.503815
0.601562,0.709717,-0.003174,-15.442748,-12.374045,59.137405
0.609131,0.711914,-0.004639,-13.160305,-12.007633,56.045803
0.621094,0.756836,-0.003906,-13.664123,-12.236641,53.816795
0.632568,0.75708,0.000244,-14.244275,-12.648855,53.259541
0.637451,0.729248,-0.01123,-12.854961,-11.549619,50.137405
0.636963,0.717529,0.002686,-8.587787,-9.587787,50.099236
0.643555,0.736084,0.011475,-2.862595,-9.022901,50.259541
0.638672,0.770996,0.017334,-4.839694,-8.496183,46.717556
0.655273,0.786133,0.014404,-5.480916,-9.206107,45.549618
0.665771,0.78833,0.012451,-5.854962,-9.580153,49.305344
0.676025,0.789795,0.003174,-5.343512,-8.946565,53.572517
0.671387,0.761475,0.001221,-0.946565,-8.038168,60.9771
0.670166,0.768066,0.02124,-0.519084,-2.183206,62.435116
0.645752,0.756592,0.026123,1.076336,3.145038,62.221375
0.635498,0.770752,0.054932,1.450382,5.687023,61.442749
0.617188,0.786133,0.054199,-0.480916,6.389313,59.625954
0.640869,0.774902,0.037354,-2.496183,7.129771,58.206108
0.648193,0.73291,0.032471,-2.549618,7.824428,59.564884
0.641357,0.719727,0.032471,-2.625954,7.832061,59.351147
0.617676,0.686768,0.036377,-1.320611,6.900764,60.648853
0.617432,0.674805,0.035645,1.496183,7.129771,59.519085
0.615479,0.681152,0.026611,3.206107,7.175572,56.160305
0.610352,0.696045,0.038086,2.916031,7.816794,54.34351
0.595703,0.699707,0.036621,1.778626,6.236641,56.572517
0.594971,0.665527,0.038086,-0.358779,3.557252,60.946564
0.59375,0.628174,0.026855,-1.580153,0.206107,65.251907
0.576416,0.603516,0.029785,-3.152672,-1.961832,69.778625
0.564941,0.589844,0.018066,-4.442748,-2.198473,71.435112
0.567627,0.571289,0.010498,-3.89313,1.648855,71.167938
0.556396,0.513428,0.000488,1.664122,6.824428,75.259544
0.577881,0.575684,0.020752,5.870229,11.564885,78.045799
0.544434,0.545898,0.017578,5.755725,11.19084,80.465652
0.548584,0.562988,0.023193,4.167939,5.824428,86.465652
0.594971,0.554199,-0.005615,3.854962,1.954198,94.03817
0.580322,0.544922,-0.010498,3.679389,1.19084,93.335876
0.563232,0.560791,-0.006104,6.0,-0.412214,91.213737
0.568115,0.554688,0.013428,7.312977,-0.816794,89.618324
0.622803,0.575928,0.03125,9.839695,-4.114504,89.503815
0.652832,0.596191,0.039551,5.030534,-6.076336,90.0
0.646729,0.575928,0.030762,-0.847328,-11.389313,99.305344
0.662354,0.5271,0.036377,-8.824428,-14.633588,107.465652
0.670166,0.471191,0.005859,-12.419847,-17.900763,115.900764
0.67749,0.408447,-0.004639,-11.885496,-17.374046,113.618324
0.696045,0.388184,-0.03418,-9.687023,-11.259542,116.114502
0.7146,0.353271,-0.025146,-8.412213,-5.671756,119.351143
0.697021,0.33667,0.000488,-5.167939,-3.816794,126.954201
0.730225,0.340576,0.019287,-4.496183,-3.908397,135.351151
0.727051,0.287598,0.043213,-7.022901,-5.0,139.28244
0.767334,0.215332,0.075195,-1.335878,-11.465649,137.045807
0.768066,0.190186,0.078613,4.877862,-14.526717,127.427483
0.738281,0.158203,0.07959,10.603053,-12.969465,125.496185
0.72168,0.124512,0.057129,11.59542,-9.0,127.694656
0.719971,0.075928,0.028809,2.480916,-9.564885,138.580154
0.812012,0.02002,-0.009033,-2.847328,-5.679389,146.893127
0.887939,-0.08374,-0.033203,-8.679389,2.580153,141.648849
0.987793,-0.14502,-0.026367,-1.068702,18.480917,127.503815
0.997803,-0.125,0.006104,13.328244,32.213741,118.022903
1.022461,-0.078613,0.057861,26.106871,37.763359,118.671753
1.028564,-0.088623,0.087646,37.175571,38.267174,113.60305
1.159668,-0.065918,0.091553,35.496181,42.419846,103.908394
1.261475,-0.097168,0.093262,31.87023,39.167938,93.435112
1.31958,-0.125977,0.092041,28.229008,36.374046,108.969467
1.333984,-0.179443,0.092041,23.458015,34.603054,138.129776
1.399902,-0.167725,0.078857,20.32061,34.816795,159.091599
1.408203,-0.119385,0.08252,17.633587,35.076336,154.778625
1.452881,-0.021729,0.083008,12.351145,29.748091,149.427475
1.462158,0.054199,0.070557,2.557252,21.51145,146.442749
1.457764,0.055664,0.052734,-2.427481,16.610687,132.610687
1.480957,0.008057,0.032715,3.167939,14.541985,121.175575
1.439209,-0.023193,0.025391,8.984733,14.732824,100.610687
1.341553,-0.149658,0.0354,16.290077,19.427481,91.488548
1.201416,-0.244629,0.057617,17.572519,22.946566,76.816795
1.156738,-0.2854,0.071289,19.854961,26.045801,64.458015
1.128418,-0.333008,0.080078,15.061069,26.534351,55.908398
1.12793,-0.381348,0.078369,10.610687,21.022902,65.213737
1.093262,-0.400879,0.090088,-1.274809,11.938931,86.854965
0.983887,-0.440186,0.11084,-11.38168,5.709924,107.969467
0.901123,-0.522949,0.115967,-26.992367,-5.931298,126.206108
0.829346,-0.669678,0.098633,-43.251907,-11.854961,141.374039
0.807373,-0.809082,0.085449,-53.458015,-14.78626,143.129776
0.840576,-0.948242,0.075439,-54.847328,-10.977099,148.725189
0.924561,-0.937256,0.062256,-48.244274,-8.458015,143.854965
1.062744,-0.879395,0.052002,-40.954197,-9.641221,130.160309
1.197021,-0.793945,0.036377,-30.541985,-13.015267,116.442749
1.241943,-0.76001,-0.004883,-18.458015,-13.725191,96.122139
1.176758,-0.717285,-0.065918,-10.137404,-5.282443,81.893127
1.274902,-0.787842,-0.05127,7.564886,6.152672,67.595421
1.280273,-0.775635,-0.04126,21.053434,20.938931,55.274811
1.317627,-0.71582,-0.000977,36.32061,35.885498,52.29771
1.285156,-0.652588,0.038818,39.091602,48.870228,48.549618
1.222168,-0.648193,0.108643,34.015266,56.442749,49.167938
1.183105,-0.633301,0.132324,28.633587,60.35878,47.442749
1.103516,-0.649414,0.168213,26.61832,63.374046,50.435116
1.03418,-0.663818,0.188721,26.030535,67.595421,50.923664
0.990723,-0.669922,0.22583,20.480917,69.259544,50.862595
0.906738,-0.747559,0.253418,15.832061,62.488548,56.832062
0.865479,-0.771484,0.263184,12.664123,50.244274,58.931297
0.861572,-0.775391,0.275146,4.931298,38.473282,56.610687
0.821533,-0.799072,0.271484,-0.80916,19.954199,50.511452
0.863525,-0.793945,0.250977,-7.061069,4.961832,44.671757
0.905029,-0.771973,0.249512,-13.641221,-6.709924,33.748093
0.94751,-0.781738,0.230957,-17.343512,-14.709924,26.022902
1.010254,-0.756104,0.222412,-18.068703,-19.816793,16.664122
1.038086,-0.72583,0.208008,-19.770992,-25.755726,2.755725
1.053955,-0.686768,0.202881,-23.137405,-32.419846,-7.267176
1.08374,-0.656006,0.190918,-25.67939,-37.877861,-11.129771
1.095215,-0.626465,0.159912,-26.534351,-40.404579,-9.229008
1.086426,-0.616699,0.130859,-26.099237,-38.458015,-8.641221
1.080811,-0.602295,0.111816,-23.183207,-32.129772,-6.343512
1.06543,-0.579346,0.090576,-17.916031,-24.312977,-4.633588
1.057861,-0.553711,0.078857,-14.175572,-17.236641,-6.236641
1.047852,-0.515869,0.061035,-13.526717,-11.343512,-9.847328
1.047607,-0.503418,0.050781,-14.145039,-4.198473,-13.366412
1.063232,-0.491455,0.049316,-9.297709,5.854962,-16.656488
1.062744,-0.467041,0.055908,-1.038168,17.80916,-15.839695
1.033691,-0.448242,0.077393,7.167939,27.641222,-13.938931
0.983154,-0.419922,0.100342,13.755725,33.503819,-13.366412
0.928223,-0.416016,0.125732,17.70229,33.992367,-14.389313
0.896973,-0.411377,0.130859,19.12977,31.366413,-16.816793
0.857666,-0.412598,0.15332,18.763359,27.572519,-18.274809
0.843506,-0.438477,0.161621,18.969465,24.328245,-20.312977
0.844482,-0.453857,0.181396,19.427481,22.221375,-22.763359
0.855469,-0.470459,0.201416,20.954199,18.175573,-25.458015
0.849609,-0.51001,0.222412,22.839695,10.038168,-31.854961
0.843262,-0.552979,0.231934,23.38168,-2.198473,-33.931297
0.9646,-0.485352,0.199219,24.709923,-6.977099,-36.259541
0.956787,-0.51123,0.2146,20.931297,-9.083969,-39.961834
1.015869,-0.487305,0.180664,18.175573,-12.015267,-36.122139
1.033936,-0.494629,0.19043,16.251909,-10.19084,-27.687023
1.055176,-0.510742,0.197021,12.717557,-8.40458,-22.824427
1.057129,-0.524902,0.210938,7.89313,-4.839694,-24.312977
1.083984,-0.539795,0.201172,6.137404,-3.343511,-23.862595
1.113281,-0.536377,0.189941,7.633588,-1.770992,-22.633587
1.08374,-0.547607,0.193115,10.099236,-1.19084,-22.793894
1.056885,-0.572266,0.201416,12.442748,-3.229008,-28.419847
1.059082,-0.591553,0.211182,10.183207,-4.374046,-35.328243
1.073975,-0.609131,0.221924,7.725191,-8.320611,-44.503819
1.10791,-0.593018,0.195801,5.534351,-11.145039,-48.992367
1.103271,-0.561523,0.174805,-0.183206,-16.664122,-59.404579
1.10498,-0.531982,0.163574,-8.015267,-24.70229,-67.0
1.157227,-0.529541,0.153076,-15.854961,-30.732824,-71.793892
1.220947,-0.561035,0.152344,-19.465649,-32.854961,-81.64122
1.327393,-0.662354,0.115723,-13.38168,-28.045801,-91.694656
1.398682,-0.693604,0.110352,4.969466,-16.412214,-95.106873
1.421387,-0.669678,0.107422,24.923664,-0.816794,-98.809158
1.415283,-0.618164,0.137451,43.099236,14.923664,-97.916031
1.375977,-0.556885,0.179688,50.32061,29.503817,-103.847328
1.348633,-0.499268,0.197998,47.32061,35.595421,-103.977097
1.35083,-0.433594,0.208496,38.442749,37.908398,-99.374046
1.325928,-0.428711,0.201416,31.625954,42.32061,-89.564888
1.249268,-0.499756,0.206787,28.900763,47.152672,-83.435112
1.1521,-0.505615,0.218018,31.374046,47.511452,-78.916031
