AX,AY,AZ,GX,GY,GZ
0.020508,0.99292,-0.052246,-10.778625,-4.740458,3.183206
0.020264,0.998779,-0.044922,-9.923664,-3.984733,3.389313
0.02002,1.004639,-0.074707,-11.259542,-2.717557,3.534351
0.018799,1.00415,-0.061768,-13.419847,-1.778626,3.221374
0.023926,1.001953,-0.081543,-15.335877,-2.19084,2.832061
0.024902,1.010254,-0.077148,-19.221375,-3.458015,2.183206
0.025146,1.007324,-0.057373,-22.305344,-4.274809,1.923664
0.025635,0.998779,-0.0625,-19.992367,-4.305344,2.175573
0.018066,1.007812,-0.086182,-17.732824,-4.068702,2.534351
0.029785,1.012451,-0.088135,-15.358779,-3.732824,3.381679
0.046387,1.007812,-0.071533,-14.824428,-4.61832,3.137405
0.061035,1.019287,-0.055176,-20.694656,-5.038168,1.076336
0.067383,1.021484,-0.024902,-27.793894,-4.305344,-0.778626
0.06543,1.032715,0.013184,-32.38168,-1.793893,-2.320611
0.054688,1.037598,0.03125,-28.404581,1.618321,-0.839695
0.044189,1.022949,0.034912,-23.030535,4.801527,2.343511
0.052002,1.001953,0.040283,-17.312977,7.08397,4.427481
0.058105,1.005127,0.044434,-14.152672,9.274809,4.755725
0.064941,0.986084,0.03833,-13.778625,10.297709,4.244275
0.072998,0.975098,0.03833,-14.442748,9.740458,4.068702
0.069092,0.954102,0.031006,-16.32061,7.91603,4.236641
0.071045,0.939941,0.023926,-17.198473,4.832061,2.969466
0.077881,0.94751,0.045654,-19.038168,1.557252,1.381679
0.084229,0.91626,0.005859,-21.656488,-2.870229,0.221374
0.087646,0.91333,-0.014648,-24.603054,-7.045802,-1.961832
0.074219,0.905762,-0.031982,-26.923664,-8.519084,-3.167939
0.073975,0.909668,-0.037842,-29.755726,-11.297709,-4.358778
0.067627,0.902344,-0.035156,-32.969467,-12.167939,-4.664122
0.061523,0.902344,-0.026611,-36.419846,-11.793893,-5.267176
0.050781,0.901123,-0.013428,-37.854961,-10.40458,-5.770992
0.049805,0.917969,0.000244,-38.793892,-7.770992,-5.045802
0.042725,0.936035,0.031738,-36.961834,-4.946565,-3.824427
0.037109,0.954834,0.027832,-33.236641,-2.763359,-2.374046
0.041748,0.942383,0.029785,-31.70229,0.900763,-0.862595
0.027588,0.938721,0.051514,-29.664122,2.419847,1.29771
0.023926,0.952148,0.084961,-24.793894,1.358779,4.229008
0.025146,0.958984,0.108887,-25.236641,-1.076336,7.38168
0.028564,0.969482,0.11792,-29.038168,-3.51145,9.068703
0.020264,0.978516,0.131348,-28.778625,-2.129771,12.114504
0.012695,1.016113,0.128418,-33.9771,1.541985,12.206107
0.012207,1.034424,0.140381,-33.580154,6.274809,14.122137
0.022705,1.062988,0.172119,-33.832062,9.312977,15.870229
0.029541,1.063232,0.175049,-34.839695,11.40458,19.0
0.047852,1.017822,0.207275,-33.511452,10.083969,21.885496
0.06665,0.991455,0.216797,-24.198473,4.40458,23.786259
0.070312,0.956787,0.254639,-28.664122,1.755725,21.793894
0.084717,0.94165,0.300049,-43.67939,4.305344,15.717557
0.071533,0.905518,0.309326,-58.648853,9.030535,7.183206
0.070557,0.89917,0.290039,-67.061066,9.946565,2.320611
0.087158,0.918945,0.309082,-77.053436,13.893129,-0.580153
0.102295,0.911377,0.373779,-82.64122,15.183207,-3.748092
0.105469,0.904053,0.408447,-82.03817,10.908397,-5.847328
0.087402,0.89624,0.422119,-77.198471,4.145038,-5.80916
0.087158,0.894775,0.417969,-70.862595,1.78626,-2.59542
0.070068,0.834717,0.451416,-67.351143,0.610687,1.19084
0.0625,0.813965,0.512451,-64.824425,-0.778626,2.427481
0.06665,0.772461,0.516846,-69.465652,-0.641221,0.946565
0.05542,0.760742,0.56665,-75.083969,1.0,0.412214
0.05957,0.737305,0.589844,-75.564888,2.969466,0.099237
0.061523,0.72583,0.601074,-75.557251,6.091603,-0.931298
0.065674,0.716064,0.647949,-72.709923,9.343512,-1.251908
0.050293,0.676025,0.669434,-65.839691,7.312977,-4.030534
0.043457,0.6875,0.656738,-57.534351,10.442748,-2.21374
0.025146,0.677246,0.644531,-50.717556,8.0,-2.229008
0.000732,0.672363,0.622314,-43.687023,2.923664,-0.671756
0.006348,0.684814,0.60083,-42.854961,-0.534351,-0.557252
0.006836,0.695068,0.575684,-44.664124,-2.450382,-0.465649
0.025635,0.721436,0.568604,-49.167938,-3.908397,-1.946565
0.025391,0.751709,0.55835,-52.061069,-4.656488,-1.938931
0.029541,0.757324,0.560303,-51.068703,-5.152672,-0.618321
0.031738,0.787598,0.543213,-50.572517,-6.679389,1.076336
0.041748,0.807861,0.534668,-49.351147,-7.229008,3.236641
0.052734,0.812744,0.540283,-50.450382,-5.656488,3.793893
0.060303,0.826172,0.538818,-54.29771,-3.748092,2.656489
0.067627,0.850098,0.54834,-58.473282,-1.29771,2.236641
0.092285,0.863281,0.571289,-60.396946,-0.305344,2.80916
0.10791,0.877441,0.576904,-64.496185,0.870229,3.412214
0.125,0.861084,0.608154,-68.954201,2.038168,1.412214
0.123779,0.84668,0.599121,-72.190842,3.603053,-0.839695
0.123291,0.815918,0.619141,-70.015266,3.977099,-0.938931
0.127197,0.781982,0.62085,-70.053436,-0.29771,-3.076336
0.105225,0.780762,0.63208,-72.083969,-1.580153,-3.152672
0.093994,0.763184,0.65625,-72.770996,-4.885496,-4.244275
0.098389,0.734619,0.667969,-70.366409,-7.885496,-4.961832
0.090088,0.727539,0.668945,-68.572517,-9.801527,-6.664122
0.092773,0.722168,0.659912,-67.236641,-10.274809,-8.045801
0.083496,0.712646,0.667236,-67.580154,-9.419847,-9.709924
0.08252,0.702637,0.669434,-65.969467,-8.671756,-10.374045
0.064941,0.696533,0.684326,-65.404579,-8.343512,-10.312977
0.059082,0.671387,0.668457,-63.854961,-9.022901,-9.954199
0.049561,0.650391,0.667969,-64.709923,-9.396947,-10.061069
0.057373,0.650879,0.673584,-67.274811,-8.900764,-10.961832
0.05957,0.64917,0.66626,-67.786263,-7.267176,-10.503817
0.05127,0.648193,0.664062,-68.847328,-4.91603,-10.603053
0.033691,0.619629,0.678467,-73.007637,-0.038168,-10.122137
-0.001221,0.597168,0.726807,-73.702293,-0.145038,-9.19084
-0.028564,0.613525,0.767822,-76.221375,-3.038168,-7.061069
-0.020996,0.620605,0.772217,-79.290077,-6.572519,-4.030534
0.012939,0.648193,0.731445,-77.39695,-8.847328,-1.954198
0.050537,0.640869,0.70752,-68.969467,-6.89313,0.251908
0.087891,0.633301,0.703613,-62.946564,-3.122137,-1.053435
0.104248,0.646729,0.694092,-63.160305,-2.160305,-1.671756
0.097168,0.650635,0.703369,-69.71756,-0.816794,-1.374046
0.089355,0.640869,0.685303,-72.71756,-1.625954,-0.305344
0.100342,0.623291,0.688965,-73.893127,-3.854962,3.473282
0.102539,0.571289,0.700928,-74.343513,-4.740458,7.557252
0.108643,0.55542,0.702393,-76.297707,-5.396946,8.38168
0.117432,0.557617,0.695068,-77.587784,-5.152672,10.61832
0.126465,0.564453,0.686279,-86.045799,-2.709924,11.954199
0.118164,0.542725,0.685547,-95.671753,-0.40458,12.458015
0.108398,0.544922,0.702393,-102.694656,3.801527,13.625955
0.111328,0.507812,0.696777,-105.564888,8.885496,14.435115
0.102539,0.455811,0.697266,-102.557251,13.137404,14.923664
0.084717,0.428467,0.705566,-95.885498,13.923664,12.442748
0.064453,0.432129,0.687988,-99.045799,15.702291,7.931298
0.05249,0.437256,0.712646,-104.702293,20.221375,3.068702
0.050293,0.446533,0.711182,-105.809158,21.030535,1.312977
0.050293,0.45752,0.688232,-102.427483,16.458015,4.633588
0.048584,0.44043,0.674316,-97.160309,10.717557,14.732824
0.08252,0.404297,0.634033,-98.893127,3.473282,19.885496
0.101807,0.348877,0.641357,-108.954201,3.145038,15.80916
0.085938,0.322021,0.600342,-109.053436,7.564886,13.038168
0.078613,0.281494,0.638428,-112.503815,23.587786,6.908397
0.084717,0.204834,0.652344,-124.312981,37.664124,-18.38168
0.001953,0.291992,0.570312,-130.671753,40.198475,-28.603054
-0.006348,0.283936,0.568359,-134.061066,30.183207,-21.732824
0.004883,0.150146,0.571045,-137.71756,13.908397,-13.702291
-0.0271,0.041504,0.637939,-156.931305,-0.312977,0.526718
-0.068359,-0.060059,0.900635,-177.198471,-2.496183,10.709924
-0.102051,-0.041992,1.19873,-165.083969,12.007633,16.87023
-0.097168,0.079346,1.383545,-138.809158,36.854961,24.595419
-0.084229,0.155273,1.379883,-124.030533,69.526718,31.748091
-0.063965,0.15625,1.404053,-125.374046,100.030533,34.9771
-0.067139,0.048828,1.54541,-118.343513,119.595421,26.335878
-0.124023,-0.006104,1.693848,-99.625954,112.061066,17.229008
-0.140869,-0.047607,1.855957,-88.259544,78.664124,8.740458
-0.126953,-0.071289,1.861084,-103.39695,40.9771,-3.862595
-0.142334,-0.11499,1.799805,-136.122131,0.679389,-8.305344
-0.135498,-0.171875,1.675537,-161.198471,-35.64122,-5.343512
-0.164551,-0.290039,1.466797,-173.2061,-59.229008,-0.770992
-0.138428,-0.446289,1.245117,-171.824432,-67.274811,4.374046
-0.074707,-0.556641,1.102539,-152.259537,-63.832062,6.78626
-0.05127,-0.598633,1.051025,-128.221375,-49.664124,4.160306
0.006592,-0.638428,0.992188,-110.725189,-32.916031,0.854962
0.039795,-0.713623,1.009033,-108.946564,-14.587787,-8.664123
0.052979,-0.787354,1.093506,-106.977097,0.061069,-9.687023
0.065674,-0.808838,1.153076,-107.198471,6.847328,-12.954199
0.051514,-0.809814,1.159424,-103.809158,12.442748,-18.480917
0.036865,-0.808594,1.287109,-105.351143,16.045801,-21.648855
0.044189,-0.796875,1.377197,-104.526718,12.335877,-29.007633
0.016846,-0.748047,1.383545,-103.839691,4.10687,-38.068703
-0.048096,-0.689697,1.39502,-100.557251,-4.419847,-37.450382
-0.089844,-0.657227,1.398926,-96.206108,-11.603053,-36.511452
-0.126221,-0.651367,1.394775,-92.809158,-17.458015,-36.65649
-0.131104,-0.664307,1.317383,-86.251907,-21.786259,-37.305344
-0.116943,-0.703125,1.267822,-78.618324,-20.687023,-38.114502
-0.111084,-0.714111,1.187256,-66.114502,-20.435114,-38.65649
-0.072021,-0.717773,1.05542,-57.648853,-20.137405,-37.473282
-0.04834,-0.76416,1.003418,-41.29771,-14.648855,-32.511452
-0.034424,-0.802734,0.951416,-32.053436,-10.396947,-29.503817
-0.019775,-0.824219,0.925537,-27.366413,-8.458015,-26.847328
0.006104,-0.813721,0.97876,-29.251909,-6.832061,-27.717558
0.012451,-0.7771,1.030762,-29.419847,-7.59542,-28.603054
0.019287,-0.727295,1.070557,-25.412214,-10.763359,-28.671755
0.027832,-0.706055,1.144043,-26.580153,-12.778625,-27.106871
0.020264,-0.651367,1.210449,-27.954199,-15.564885,-23.465649
0.027344,-0.595459,1.254883,-26.198473,-19.458015,-19.977098
0.018799,-0.550049,1.284912,-26.38168,-20.770992,-16.625954
0.034912,-0.506104,1.273438,-22.229008,-19.458015,-14.824428
0.03833,-0.474609,1.238037,-18.29771,-17.893129,-11.664123
0.044434,-0.47168,1.215576,-17.832062,-15.847328,-8.396947
0.031738,-0.451904,1.162109,-16.030535,-11.473283,-4.465649
0.021729,-0.436523,1.146729,-8.557252,-5.778626,0.412214
0.022949,-0.443115,1.133057,-1.152672,-2.732824,2.885496
0.053711,-0.444824,1.126709,1.610687,0.938931,3.534351
0.062988,-0.428467,1.105225,5.167939,1.534351,4.10687
0.074707,-0.376953,1.060303,6.465649,3.229008,5.740458
0.081299,-0.359863,1.03125,13.526717,1.877863,8.274809
0.075928,-0.353271,1.024902,18.412214,-1.160305,10.946565
0.079346,-0.348877,1.016357,20.580153,-4.206107,15.793893
0.098389,-0.363037,1.030273,16.519083,-8.106871,19.305344
0.106934,-0.385498,1.01709,11.717557,-8.488549,20.854961
0.120605,-0.399902,0.987061,7.839694,-7.732824,18.992367
0.127197,-0.410889,0.963379,1.580153,-7.053435,15.587787
0.116211,-0.420166,0.933105,-3.152672,-4.709924,13.961832
0.100342,-0.409912,0.916748,-7.351145,-1.755725,14.656488
0.09375,-0.423584,0.926025,-10.061069,1.961832,15.297709
0.080078,-0.431641,0.960693,-7.870229,5.366412,14.557252
0.067383,-0.44043,0.978271,-3.671756,7.557252,14.908397
0.064697,-0.440186,0.991699,-1.801527,8.946565,14.633588
0.064941,-0.45166,0.991699,0.732824,9.862596,14.465649
0.06958,-0.450439,0.987549,4.183206,9.908397,14.603053
0.075439,-0.446533,0.97998,5.557252,9.038168,14.854961
0.071777,-0.460693,0.991211,4.641222,6.725191,15.320611
0.078125,-0.455566,1.017334,0.030534,2.671756,13.847328
0.074707,-0.466797,1.02832,-3.091603,-0.900763,13.076336
0.062744,-0.471436,1.032227,-8.778625,-3.664122,12.259542
0.064697,-0.469238,1.020996,-12.862596,-3.129771,11.251908
0.062012,-0.485596,1.020508,-14.717557,-2.076336,9.877863
0.049561,-0.48877,1.00415,-12.374045,-2.450382,8.656488
0.05542,-0.48584,1.00708,-13.229008,-0.389313,8.38168
0.047852,-0.486084,1.022949,-12.458015,1.923664,9.007633
0.041504,-0.477295,1.031494,-8.412213,4.259542,9.458015
0.040283,-0.468506,1.041992,-2.221374,7.541985,11.465649
0.056641,-0.460938,1.074463,7.335878,12.893129,14.709924
0.066895,-0.468994,1.109131,18.351145,16.70229,15.305344
0.08667,-0.467285,1.102783,26.053434,19.427481,13.633588
0.106934,-0.452881,1.119873,26.839695,22.87023,12.38168
0.127197,-0.469971,1.141113,29.450382,23.221375,9.862596
0.137207,-0.465576,1.153809,33.740459,20.48855,6.221374
0.130371,-0.444824,1.171387,33.984734,15.847328,4.473282
0.123535,-0.436768,1.188477,31.030535,10.564885,2.694656
0.118652,-0.463135,1.136963,27.977098,5.366412,0.175573
0.113281,-0.486084,1.150146,27.526718,2.167939,-3.80916
0.115234,-0.522949,1.177246,22.786259,-0.954198,-11.274809
0.092041,-0.539307,1.24707,31.229008,-6.587786,-13.152672
